Folder: NeXLNotebooks/NeXLSpectrum/HyperSpectra/PTX

File: Cu std.msa
#FORMAT      : EMSA/MAS Spectral Data File
#VERSION     : 1.0
#TITLE       : Cu std
#DATE        : 15-MAY-2018
#TIME        : 11:57
#OWNER       : Unknown
#NPOINTS     : 4096
#NCOLUMNS    : 1
#XUNITS      : eV
#YUNITS      : counts
#DATATYPE    : Y
#XPERCHAN    : 9.99856
#OFFSET      : 1.63032
#BEAMKV      : 25
#SIGNALTYPE  : EDS
#ELEVANGLE   : 35
#AZIMANGLE   : 0
#LIVETIME    : 1171.08
#REALTIME    : 1665.23
#PROBECUR    : 0.94575
#TDEADLYR    : 0
#TACTLYR     : 0.045
#TALWIND     : 0.003
#CHOFFSET    : 0.0
#XLABEL      : Energy (eV)
#YLABEL      : Counts
#EDSDET      : SDUTW
##SPECIMEN   : Cu std
##D2STDCMP   : Cu,(Cu:100.0),8.9
##DET_HASH   : 97086dfe-e5c2-9c77-3984-1d0b14bbbf41
##CALIB_HASH : 1a36e884-c26d-3547-51b1-d0bb2efdf95a
##WORKING    : 16.99 mm
##SAMPLE     : <BulkSample id="1">\n<mOrientation id="2">\n<double>0.0</double>\n<double>0.0</double>\n<double>-1.0</double>\n</mOrientation>\n</BulkSample>
#SPECTRUM    :
26,
90,
29797,
14373,
28734,
47067,
285123,
685497,
12956,
15215,
18843,
21730,
23751,
30710,
26189,
28473,
31273,
32569,
33293,
34812,
34579,
35098,
35090,
34814,
35227,
34325,
34217,
33542,
32840,
32140,
31402,
30565,
29903,
29207,
28878,
28036,
27036,
26282,
26058,
25815,
24283,
23600,
23186,
22694,
22488,
24673,
24329,
20370,
19722,
19630,
19387,
18703,
17841,
18153,
18078,
18584,
30303,
763438,
579073,
20687,
14901,
14881,
17265,
85971,
127547,
13758,
9405,
9094,
9097,
9306,
9634,
9094,
8541,
8340,
8253,
8456,
8214,
7656,
7526,
7393,
7078,
7101,
6969,
6642,
6494,
6228,
6135,
6088,
5893,
5799,
6017,
5385,
5212,
4980,
4695,
4657,
4566,
4483,
4212,
4021,
3941,
3841,
3693,
3503,
3546,
3346,
3294,
3137,
3014,
2938,
2751,
2611,
2598,
2637,
2658,
3070,
2373,
2105,
1990,
1909,
1937,
2032,
1765,
1600,
1461,
1442,
1401,
1419,
1296,
1263,
1077,
1135,
1078,
1021,
939,
906,
851,
876,
737,
720,
680,
668,
644,
588,
506,
515,
496,
476,
417,
433,
385,
321,
352,
270,
304,
250,
224,
242,
198,
203,
159,
156,
137,
126,
120,
114,
102,
88,
84,
67,
51,
62,
43,
40,
45,
20,
20,
13,
8,
6,
0,
6,
2,
2,
2,
2,
4,
3,
3,
1,
1,
1,
0,
1,
2,
0,
0,
2,
0,
0,
2,
0,
0,
1,
1,
1,
0,
2,
0,
0,
0,
0,
0,
0,
1,
0,
0,
0,
0,
2,
0,
0,
1,
0,
0,
0,
0,
0,
0,
0,
0,
0,
0,
0,
0,
0,
0,
0,
0,
0,
0,
0,
0,
0,
0,
0,
0,
0,
0,
0,
0,
0,
0,
0,
0,
0,
0,
0,
0,
0,
0,
0,
0,
0,
0,
0,
0,
0,
0,
0,
0,
0,
0,
0,
0,
0,
0,
0,
0,
0,
0,
0,
0,
0,
0,
0,
0,
0,
0,
0,
0,
0,
0,
0,
#ENDOFDATA   :

File: Fe std.msa
#FORMAT      : EMSA/MAS Spectral Data File
#VERSION     : 1.0
#TITLE       : Fe std
#DATE        : 15-MAY-2018
#TIME        : 10:58
#OWNER       : Unknown
#NPOINTS     : 4096
#NCOLUMNS    : 1
#XUNITS      : eV
#YUNITS      : counts
#DATATYPE    : Y
#XPERCHAN    : 9.99856
#OFFSET      : 1.63032
#BEAMKV      : 25
#SIGNALTYPE  : EDS
#ELEVANGLE   : 35
#AZIMANGLE   : 0
#LIVETIME    : 938.485
#REALTIME    : 1283.93
#PROBECUR    : 0.94656
#TDEADLYR    : 0
#TACTLYR     : 0.045
#TALWIND     : 0.003
#CHOFFSET    : 0.0
#XLABEL      : Energy (eV)
#YLABEL      : Counts
#EDSDET      : SDUTW
##SPECIMEN   : Fe std
##D2STDCMP   : Fe,(Fe:100.0),7.87
##DET_HASH   : 97086dfe-e5c2-9c77-3984-1d0b14bbbf41
##CALIB_HASH : 1a36e884-c26d-3547-51b1-d0bb2efdf95a
##WORKING    : 16.99 mm
##SAMPLE     : <BulkSample id="1">\n<mOrientation id="2">\n<double>0.0</double>\n<double>0.0</double>\n<double>-1.0</double>\n</mOrientation>\n</BulkSample>
#SPECTRUM    :
15,
55,
24990,
11589,
62803,
505803,
8778,
10433,
12275,
15443,
18382,
20812,
29601,
24855,
23862,
25828,
27329,
28462,
28708,
29444,
29635,
28703,
28570,
28637,
28274,
27266,
26793,
26337,
25867,
25037,
24303,
23880,
23502,
27225,
22865,
21451,
20726,
20403,
20848,
21142,
18708,
18118,
18402,
18406,
21459,
357898,
1279987,
32433,
15818,
19291,
147138,
92002,
9617,
9006,
8967,
9194,
8940,
8625,
8599,
8405,
8334,
8010,
8034,
7883,
7778,
7591,
7330,
7187,
7174,
7016,
6878,
6557,
6448,
6276,
6182,
6385,
6051,
5589,
5541,
5632,
5254,
5142,
5055,
4979,
4906,
4487,
4475,
4293,
4229,
4219,
4361,
5480,
5061,
3652,
3492,
3625,
4074,
3285,
3097,
2913,
2789,
2789,
2675,
2574,
2352,
2332,
2253,
2265,
2090,
1994,
1989,
1827,
1891,
1779,
1677,
1561,
1552,
1437,
1414,
1348,
1161,
1245,
1160,
1129,
1037,
1006,
960,
980,
833,
848,
825,
733,
767,
726,
666,
662,
587,
538,
526,
486,
501,
436,
441,
436,
355,
352,
338,
346,
300,
285,
278,
230,
215,
197,
165,
190,
172,
172,
146,
137,
115,
100,
99,
80,
79,
73,
49,
69,
57,
38,
38,
41,
26,
25,
16,
14,
10,
4,
6,
3,
2,
0,
2,
2,
2,
0,
1,
1,
1,
1,
1,
0,
0,
0,
0,
2,
1,
1,
0,
1,
1,
0,
0,
1,
0,
0,
0,
0,
0,
0,
0,
0,
0,
0,
0,
0,
0,
0,
0,
0,
0,
0,
0,
0,
0,
0,
0,
0,
0,
0,
0,
0,
0,
0,
0,
0,
0,
0,
0,
0,
0,
0,
0,
0,
0,
1,
0,
0,
0,
0,
0,
0,
0,
0,
0,
0,
0,
0,
0,
0,
0,
0,
0,
0,
0,
0,
0,
0,
0,
0,
0,
0,
0,
0,
0,
0,
0,
0,
0,
0,
0,
0,
0,
0,
0,
0,
0,
0,
0,
0,
0,
0,
0,
0,
#ENDOFDATA   :

File: MaxPixel[Test].msa
#FORMAT      : EMSA/MAS Spectral Data File
#VERSION     : 1.0
#TITLE       : MaxPixel[Test]
#DATE        : 31-DEC-1969
#TIME        : 07:00
#OWNER       : Unknown
#NPOINTS     : 2048
#NCOLUMNS    : 1
#XUNITS      : eV
#YUNITS      : counts
#DATATYPE    : Y
#XPERCHAN    : 9.99856
#OFFSET      : 1.63032
#SIGNALTYPE  : EDS
#ELEVANGLE   : 35
#AZIMANGLE   : 0
#TDEADLYR    : 0
#TACTLYR     : 0.045
#TALWIND     : 0.003
#CHOFFSET    : 0.0
#XLABEL      : Energy (eV)
#YLABEL      : Counts
#EDSDET      : SDUTW
##SPECIMEN   : MaxPixel[Test]
##DET_HASH   : 97086dfe-e5c2-9c77-3984-1d0b14bbbf41
##CALIB_HASH : 1a36e884-c26d-3547-51b1-d0bb2efdf95a
#SPECTRUM    :
1,
0,
1,
7,
27,
3,
3,
15,
10,
6,
12,
4,
3,
5,
3,
4,
3,
3,
4,
4,
4,
4,
4,
4,
4,
8,
4,
4,
4,
4,
4,
4,
5,
6,
6,
3,
3,
3,
4,
3,
4,
3,
3,
4,
3,
3,
3,
3,
3,
3,
4,
3,
4,
3,
3,
3,
4,
4,
3,
3,
2,
3,
3,
3,
3,
3,
3,
3,
3,
3,
3,
3,
3,
3,
3,
3,
3,
2,
3,
3,
3,
3,
2,
2,
3,
3,
2,
2,
2,
3,
8,
17,
19,
7,
3,
2,
2,
3,
2,
4,
5,
6,
3,
3,
2,
3,
2,
3,
2,
2,
2,
2,
2,
2,
2,
3,
2,
2,
2,
2,
2,
2,
2,
2,
2,
2,
2,
2,
2,
2,
2,
2,
2,
2,
2,
2,
2,
2,
2,
3,
2,
2,
2,
2,
2,
3,
2,
2,
2,
2,
2,
2,
2,
2,
2,
2,
2,
2,
2,
2,
2,
2,
2,
2,
2,
2,
2,
2,
2,
2,
2,
2,
1,
2,
2,
2,
3,
2,
2,
2,
2,
2,
2,
2,
2,
1,
2,
2,
1,
2,
1,
2,
2,
1,
2,
2,
2,
1,
1,
1,
1,
2,
1,
2,
2,
1,
2,
2,
1,
2,
2,
2,
2,
1,
1,
2,
1,
1,
1,
1,
2,
1,
2,
1,
2,
1,
1,
1,
1,
1,
2,
1,
1,
1,
1,
1,
1,
1,
1,
1,
1,
2,
1,
1,
1,
1,
1,
1,
1,
1,
1,
2,
1,
1,
1,
2,
1,
1,
1,
1,
1,
1,
1,
1,
1,
1,
1,
1,
2,
1,
1,
1,
1,
1,
1,
1,
1,
1,
1,
1,
1,
1,
1,
1,
1,
1,
1,
1,
1,
1,
1,
1,
2,
1,
#ENDOFDATA   :

File: MgO std.msa
#FORMAT      : EMSA/MAS Spectral Data File
#VERSION     : 1.0
#TITLE       : MgO std
#DATE        : 15-MAY-2018
#TIME        : 09:51
#OWNER       : Unknown
#NPOINTS     : 4096
#NCOLUMNS    : 1
#XUNITS      : eV
#YUNITS      : counts
#DATATYPE    : Y
#XPERCHAN    : 9.99856
#OFFSET      : 1.63032
#BEAMKV      : 25
#SIGNALTYPE  : EDS
#ELEVANGLE   : 35
#AZIMANGLE   : 0
#LIVETIME    : 1172.82
#REALTIME    : 1456.54
#PROBECUR    : 0.94932
#TDEADLYR    : 0
#TACTLYR     : 0.045
#TALWIND     : 0.003
#CHOFFSET    : 0.0
#XLABEL      : Energy (eV)
#YLABEL      : Counts
#EDSDET      : SDUTW
##SPECIMEN   : MgO std
##D2STDCMP   : MgO,(O:39.6964),(Mg:60.3036),5.0
##DET_HASH   : 97086dfe-e5c2-9c77-3984-1d0b14bbbf41
##CALIB_HASH : 1a36e884-c26d-3547-51b1-d0bb2efdf95a
##WORKING    : 16.99 mm
##SAMPLE     : <BulkSample id="1">\n<mOrientation id="2">\n<double>0.0</double>\n<double>0.0</double>\n<double>-1.0</double>\n</mOrientation>\n</BulkSample>
#SPECTRUM    :
23,
49,
13464,
15231,
221417,
9352,
12903,
21067,
46463,
3565363,
11303,
9556,
10826,
14383,
11995,
13040,
13763,
14447,
23778,
14763,
14779,
14667,
14497,
14248,
13754,
13591,
13675,
13019,
12323,
12131,
11544,
11306,
10899,
10233,
10223,
9939,
9624,
9113,
8884,
8918,
8151,
7916,
7633,
7372,
7089,
7121,
7177,
6395,
6245,
5917,
5933,
5764,
5414,
5288,
5150,
4908,
4837,
4739,
4580,
4512,
4350,
4272,
3880,
3834,
3879,
3748,
3619,
3443,
3354,
3231,
3126,
3033,
2902,
2894,
2778,
2738,
2657,
2471,
2361,
2299,
2209,
2149,
2087,
1987,
1934,
1859,
1880,
1738,
1734,
1579,
1735,
1544,
1441,
1385,
1294,
1288,
1303,
1232,
1142,
1066,
1027,
1032,
1016,
965,
926,
856,
825,
820,
775,
696,
699,
623,
664,
632,
589,
580,
555,
500,
473,
455,
438,
388,
384,
356,
368,
352,
333,
323,
294,
283,
248,
271,
251,
216,
231,
186,
211,
160,
159,
177,
165,
135,
147,
110,
119,
102,
94,
79,
78,
81,
64,
76,
51,
53,
63,
46,
49,
59,
41,
35,
22,
29,
38,
24,
18,
25,
18,
14,
17,
6,
3,
1,
5,
2,
2,
1,
0,
0,
0,
0,
0,
0,
0,
0,
0,
0,
0,
0,
0,
0,
0,
0,
0,
0,
0,
0,
0,
0,
0,
0,
0,
0,
0,
0,
0,
0,
0,
0,
0,
0,
0,
0,
0,
0,
0,
0,
0,
0,
0,
0,
0,
0,
0,
0,
0,
0,
0,
0,
0,
0,
0,
0,
0,
0,
0,
0,
0,
0,
0,
0,
0,
0,
0,
0,
0,
0,
0,
0,
0,
0,
0,
0,
0,
0,
0,
0,
0,
0,
0,
0,
0,
0,
0,
0,
0,
0,
0,
0,
0,
0,
0,
0,
0,
0,
0,
0,
0,
0,
0,
0,
0,
0,
0,
0,
0,
0,
0,
0,
0,
0,
0,
0,
0,
0,
#ENDOFDATA   :

File: Mo std.msa
#FORMAT      : EMSA/MAS Spectral Data File
#VERSION     : 1.0
#TITLE       : Mo std
#DATE        : 15-MAY-2018
#TIME        : 02:21
#OWNER       : Unknown
#NPOINTS     : 4096
#NCOLUMNS    : 1
#XUNITS      : eV
#YUNITS      : counts
#DATATYPE    : Y
#XPERCHAN    : 9.99856
#OFFSET      : 1.63032
#BEAMKV      : 25
#SIGNALTYPE  : EDS
#ELEVANGLE   : 35
#AZIMANGLE   : 0
#LIVETIME    : 1162.8
#REALTIME    : 1707.81
#PROBECUR    : 0.94129
#TDEADLYR    : 0
#TACTLYR     : 0.045
#TALWIND     : 0.003
#CHOFFSET    : 0.0
#XLABEL      : Energy (eV)
#YLABEL      : Counts
#EDSDET      : SDUTW
##SPECIMEN   : Mo std
##D2STDCMP   : Mo,(Mo:100.0),5.0
##DET_HASH   : 97086dfe-e5c2-9c77-3984-1d0b14bbbf41
##CALIB_HASH : 1a36e884-c26d-3547-51b1-d0bb2efdf95a
##WORKING    : 16.99 mm
##SAMPLE     : <BulkSample id="1">\n<mOrientation id="2">\n<double>0.0</double>\n<double>0.0</double>\n<double>-1.0</double>\n</mOrientation>\n</BulkSample>
#SPECTRUM    :
21,
1065,
21799,
10488,
70468,
28303,
25959,
33135,
41034,
48610,
54441,
59330,
60278,
65297,
98401,
112358,
1087912,
1388856,
227106,
40549,
34513,
24069,
24151,
24948,
26129,
27071,
27570,
27896,
28330,
28606,
28912,
29212,
30032,
36532,
33291,
28762,
28203,
27584,
27176,
27817,
26333,
25838,
25795,
25063,
24712,
24485,
25979,
23412,
23131,
22967,
22333,
21693,
21316,
21417,
20572,
20131,
19343,
19016,
18816,
18511,
17879,
17377,
17312,
16570,
16213,
15605,
15463,
15405,
14780,
14645,
14272,
14030,
13358,
13238,
12914,
13510,
12730,
11740,
11676,
11176,
10974,
10613,
10272,
10041,
9799,
9389,
9175,
8937,
8861,
8391,
9181,
8204,
7684,
7499,
7183,
7059,
6790,
6404,
6384,
6133,
5985,
5652,
5463,
5347,
5092,
4952,
4802,
4557,
4512,
4269,
4146,
3992,
4082,
3868,
3559,
3471,
3345,
3162,
3101,
2934,
2853,
2613,
2591,
4854,
15344,
16482,
4528,
2141,
1999,
1859,
1806,
1684,
1643,
1509,
1446,
1403,
1355,
1300,
1270,
2013,
3175,
1791,
1275,
1086,
844,
753,
732,
685,
671,
620,
616,
515,
494,
521,
423,
437,
382,
350,
330,
298,
275,
281,
223,
234,
194,
187,
171,
141,
124,
131,
79,
76,
70,
51,
66,
41,
30,
12,
10,
7,
5,
3,
5,
2,
3,
5,
3,
3,
4,
1,
2,
1,
0,
2,
1,
1,
2,
0,
1,
0,
0,
1,
0,
1,
0,
0,
3,
2,
2,
0,
0,
0,
0,
0,
0,
0,
1,
0,
0,
0,
1,
1,
1,
0,
0,
0,
0,
1,
0,
0,
0,
0,
0,
0,
0,
0,
0,
0,
0,
0,
0,
0,
0,
1,
0,
0,
0,
0,
0,
0,
0,
0,
0,
0,
0,
0,
0,
0,
0,
0,
0,
0,
0,
0,
0,
0,
0,
0,
0,
0,
0,
0,
0,
0,
0,
0,
0,
0,
1,
0,
0,
0,
0,
0,
0,
0,
0,
0,
0,
0,
0,
0,
0,
0,
#ENDOFDATA   :

File: Si std.msa
#FORMAT      : EMSA/MAS Spectral Data File
#VERSION     : 1.0
#TITLE       : Si std
#DATE        : 15-MAY-2018
#TIME        : 09:22
#OWNER       : Unknown
#NPOINTS     : 4096
#NCOLUMNS    : 1
#XUNITS      : eV
#YUNITS      : counts
#DATATYPE    : Y
#XPERCHAN    : 9.99856
#OFFSET      : 1.63032
#BEAMKV      : 25
#SIGNALTYPE  : EDS
#ELEVANGLE   : 35
#AZIMANGLE   : 0
#LIVETIME    : 1149.75
#REALTIME    : 1872.97
#PROBECUR    : 0.95147
#TDEADLYR    : 0
#TACTLYR     : 0.045
#TALWIND     : 0.003
#CHOFFSET    : 0.0
#XLABEL      : Energy (eV)
#YLABEL      : Counts
#EDSDET      : SDUTW
##SPECIMEN   : Si std
##D2STDCMP   : Si,(Si:100.0),2.95
##DET_HASH   : 97086dfe-e5c2-9c77-3984-1d0b14bbbf41
##CALIB_HASH : 1a36e884-c26d-3547-51b1-d0bb2efdf95a
##WORKING    : 16.99 mm
##SAMPLE     : <BulkSample id="1">\n<mOrientation id="2">\n<double>0.0</double>\n<double>0.0</double>\n<double>-1.0</double>\n</mOrientation>\n</BulkSample>
#SPECTRUM    :
19,
63,
9630,
7137,
12304,
19597,
28298,
37174,
44357,
49898,
59859,
83792,
2158170,
1045822,
10653,
9434,
11231,
12009,
12990,
13802,
14373,
14695,
15209,
15831,
17240,
73739,
17069,
14370,
14118,
14260,
13824,
13524,
13158,
13050,
12869,
12451,
12115,
12000,
11589,
11498,
10832,
10614,
10265,
9970,
9670,
9579,
9735,
8816,
8584,
8330,
8208,
7785,
7635,
7679,
7303,
6978,
6838,
6555,
6426,
6190,
6167,
5921,
5727,
5589,
5454,
5294,
5156,
4930,
4760,
4512,
4550,
4471,
4142,
4052,
4023,
4170,
3763,
3687,
3590,
3304,
3331,
3235,
3132,
3048,
2936,
2934,
2719,
2599,
2476,
2635,
2478,
2363,
2200,
2160,
2021,
1961,
1905,
1901,
1819,
1669,
1627,
1536,
1515,
1450,
1425,
1380,
1264,
1183,
1132,
1225,
1106,
1029,
1053,
944,
913,
897,
789,
830,
772,
734,
697,
606,
573,
564,
560,
588,
524,
503,
488,
446,
433,
408,
363,
349,
315,
302,
320,
273,
273,
259,
248,
213,
214,
223,
184,
157,
159,
169,
133,
121,
122,
115,
111,
97,
91,
79,
79,
65,
60,
59,
48,
42,
47,
39,
36,
28,
28,
30,
34,
23,
22,
17,
12,
12,
11,
8,
4,
8,
4,
0,
0,
1,
0,
0,
0,
0,
0,
1,
0,
0,
0,
0,
1,
1,
0,
0,
0,
0,
0,
0,
0,
1,
0,
0,
0,
0,
0,
0,
0,
0,
1,
0,
0,
0,
0,
0,
0,
0,
0,
0,
0,
0,
0,
0,
0,
0,
0,
0,
0,
0,
0,
0,
0,
0,
0,
0,
0,
0,
0,
0,
0,
0,
0,
0,
0,
0,
0,
0,
0,
0,
0,
0,
0,
0,
0,
0,
0,
0,
0,
0,
0,
0,
0,
0,
0,
0,
0,
0,
0,
0,
0,
0,
0,
0,
0,
0,
0,
0,
0,
0,
0,
0,
0,
0,
0,
0,
0,
0,
0,
0,
0,
0,
0,
0,
#ENDOFDATA   :

File: Spectrum[0].msa
#FORMAT      : EMSA/MAS Spectral Data File
#VERSION     : 1.0
#TITLE       : Sum[det=0]
#DATE        : 31-DEC-1969
#TIME        : 07:00
#OWNER       : Unknown
#NPOINTS     : 2048
#NCOLUMNS    : 1
#XUNITS      : eV
#YUNITS      : counts
#DATATYPE    : Y
#XPERCHAN    : 10
#OFFSET      : 0
#SIGNALTYPE  : EDS
#LIVETIME    : 0
#REALTIME    : 0
#CHOFFSET    : 0.0
#XLABEL      : Energy (eV)
#YLABEL      : Counts
##SPECIMEN   : Sum[det=0]
#SPECTRUM    :
11,
0,
12,
5335,
44363,
637,
474,
5234,
2563,
771,
2329,
608,
504,
695,
873,
1485,
790,
870,
1008,
976,
1016,
1142,
1044,
937,
1162,
1589,
1061,
960,
1044,
1054,
952,
901,
1397,
2863,
1218,
991,
832,
841,
770,
709,
722,
750,
694,
684,
668,
633,
611,
634,
610,
598,
548,
599,
534,
510,
507,
538,
498,
502,
431,
510,
407,
403,
451,
465,
577,
498,
422,
370,
402,
437,
396,
389,
361,
367,
356,
332,
297,
304,
314,
279,
304,
289,
267,
311,
295,
276,
275,
285,
245,
369,
1770,
5858,
4846,
1218,
323,
277,
237,
236,
259,
353,
844,
971,
478,
230,
215,
187,
186,
166,
173,
155,
174,
159,
173,
215,
257,
303,
221,
162,
152,
160,
149,
138,
149,
151,
133,
132,
150,
148,
123,
128,
120,
128,
123,
131,
105,
123,
109,
109,
137,
128,
101,
127,
99,
114,
112,
80,
112,
93,
95,
95,
105,
80,
87,
86,
105,
85,
83,
90,
70,
70,
79,
84,
70,
78,
80,
80,
56,
81,
71,
67,
95,
55,
65,
57,
63,
53,
49,
68,
58,
77,
54,
65,
63,
55,
58,
51,
46,
49,
57,
48,
54,
40,
50,
58,
44,
53,
56,
42,
37,
40,
41,
46,
34,
42,
38,
41,
36,
44,
42,
41,
25,
33,
40,
26,
33,
34,
36,
20,
24,
44,
24,
19,
32,
27,
24,
26,
35,
17,
17,
21,
21,
25,
16,
18,
23,
20,
18,
22,
21,
12,
17,
16,
18,
19,
7,
17,
12,
19,
23,
17,
16,
13,
11,
16,
15,
9,
11,
8,
17,
11,
11,
10,
7,
16,
12,
4,
19,
8,
14,
7,
12,
11,
8,
8,
5,
5,
8,
6,
8,
9,
5,
9,
3,
9,
5,
8,
6,
10,
3,
7,
3,
9,
5,
5,
#ENDOFDATA   :

File: Spectrum[1].msa
#FORMAT      : EMSA/MAS Spectral Data File
#VERSION     : 1.0
#TITLE       : Sum[det=1]
#DATE        : 31-DEC-1969
#TIME        : 07:00
#OWNER       : Unknown
#NPOINTS     : 2048
#NCOLUMNS    : 1
#XUNITS      : eV
#YUNITS      : counts
#DATATYPE    : Y
#XPERCHAN    : 10
#OFFSET      : 0
#SIGNALTYPE  : EDS
#LIVETIME    : 0
#REALTIME    : 0
#CHOFFSET    : 0.0
#XLABEL      : Energy (eV)
#YLABEL      : Counts
##SPECIMEN   : Sum[det=1]
#SPECTRUM    :
0,
0,
9,
2877,
40731,
430,
354,
4265,
2015,
613,
1606,
465,
450,
659,
769,
1325,
657,
780,
885,
880,
870,
1013,
946,
825,
1034,
1617,
981,
813,
839,
965,
789,
771,
1208,
2580,
1011,
859,
768,
750,
699,
641,
646,
632,
625,
596,
539,
577,
538,
567,
525,
489,
450,
506,
499,
499,
478,
412,
444,
390,
422,
362,
401,
369,
389,
392,
473,
362,
372,
317,
349,
361,
307,
307,
295,
324,
307,
296,
265,
271,
271,
244,
246,
237,
245,
242,
250,
258,
240,
223,
238,
331,
1619,
5148,
4267,
1070,
264,
222,
210,
207,
208,
337,
728,
885,
405,
186,
165,
165,
145,
153,
162,
140,
154,
146,
126,
167,
227,
257,
177,
146,
121,
131,
136,
121,
132,
120,
129,
115,
130,
118,
138,
117,
120,
101,
104,
103,
121,
95,
119,
104,
103,
95,
93,
88,
82,
83,
98,
85,
86,
89,
66,
96,
88,
72,
83,
53,
73,
57,
79,
71,
69,
68,
91,
80,
59,
60,
60,
67,
73,
57,
65,
64,
64,
66,
61,
58,
48,
65,
77,
60,
59,
41,
56,
46,
54,
59,
51,
35,
45,
49,
34,
50,
43,
43,
34,
37,
45,
39,
43,
32,
34,
34,
33,
34,
30,
32,
36,
42,
34,
20,
30,
21,
32,
18,
33,
16,
28,
20,
27,
17,
23,
15,
25,
19,
25,
27,
20,
26,
22,
18,
22,
15,
19,
14,
18,
14,
24,
20,
12,
14,
16,
21,
18,
12,
12,
10,
14,
7,
14,
11,
9,
3,
12,
13,
13,
10,
12,
13,
10,
6,
9,
6,
10,
9,
7,
7,
8,
5,
5,
6,
8,
1,
10,
5,
2,
2,
8,
5,
7,
6,
8,
4,
5,
3,
7,
3,
1,
5,
2,
4,
5,
2,
1,
0,
3,
4,
#ENDOFDATA   :

File: Spectrum[2].msa
#FORMAT      : EMSA/MAS Spectral Data File
#VERSION     : 1.0
#TITLE       : Sum[det=2]
#DATE        : 31-DEC-1969
#TIME        : 07:00
#OWNER       : Unknown
#NPOINTS     : 2048
#NCOLUMNS    : 1
#XUNITS      : eV
#YUNITS      : counts
#DATATYPE    : Y
#XPERCHAN    : 10
#OFFSET      : 0
#SIGNALTYPE  : EDS
#LIVETIME    : 0
#REALTIME    : 0
#CHOFFSET    : 0.0
#XLABEL      : Energy (eV)
#YLABEL      : Counts
##SPECIMEN   : Sum[det=2]
#SPECTRUM    :
0,
0,
4,
1884,
44684,
541,
401,
4963,
2201,
757,
2199,
559,
450,
673,
736,
1388,
705,
765,
896,
826,
909,
1041,
950,
901,
1042,
1611,
960,
854,
909,
970,
853,
844,
1109,
2590,
984,
822,
748,
751,
667,
674,
652,
626,
611,
570,
583,
548,
563,
559,
499,
548,
481,
509,
503,
487,
460,
466,
458,
430,
393,
401,
391,
407,
393,
430,
467,
374,
373,
403,
350,
372,
360,
312,
309,
314,
292,
280,
304,
264,
288,
274,
251,
271,
271,
262,
249,
281,
233,
256,
257,
330,
1319,
4888,
4581,
1142,
293,
225,
196,
203,
222,
274,
618,
875,
470,
199,
156,
183,
163,
158,
183,
134,
156,
131,
137,
148,
211,
239,
197,
156,
135,
129,
131,
137,
119,
124,
114,
138,
130,
133,
114,
128,
92,
112,
114,
110,
101,
93,
117,
120,
88,
99,
80,
81,
112,
102,
97,
85,
104,
93,
82,
89,
109,
94,
83,
86,
85,
86,
79,
77,
76,
82,
65,
70,
71,
84,
64,
74,
59,
67,
63,
61,
52,
56,
68,
53,
47,
58,
70,
62,
62,
64,
54,
41,
57,
42,
47,
55,
45,
46,
36,
39,
39,
32,
37,
35,
46,
43,
38,
40,
37,
45,
42,
31,
44,
29,
36,
24,
33,
31,
32,
21,
31,
20,
26,
23,
23,
28,
30,
26,
27,
31,
28,
21,
24,
26,
22,
19,
17,
23,
27,
13,
11,
22,
19,
16,
24,
21,
24,
20,
10,
25,
18,
17,
10,
18,
11,
16,
9,
11,
12,
10,
13,
14,
8,
12,
5,
14,
8,
10,
9,
17,
9,
10,
7,
9,
6,
8,
6,
4,
10,
14,
6,
9,
6,
5,
10,
5,
4,
4,
12,
5,
3,
4,
4,
5,
8,
4,
3,
3,
4,
4,
6,
1,
8,
3,
#ENDOFDATA   :

File: Spectrum[3].msa
#FORMAT      : EMSA/MAS Spectral Data File
#VERSION     : 1.0
#TITLE       : Sum[det=3]
#DATE        : 31-DEC-1969
#TIME        : 07:00
#OWNER       : Unknown
#NPOINTS     : 2048
#NCOLUMNS    : 1
#XUNITS      : eV
#YUNITS      : counts
#DATATYPE    : Y
#XPERCHAN    : 10
#OFFSET      : 0
#SIGNALTYPE  : EDS
#LIVETIME    : 0
#REALTIME    : 0
#CHOFFSET    : 0.0
#XLABEL      : Energy (eV)
#YLABEL      : Counts
##SPECIMEN   : Sum[det=3]
#SPECTRUM    :
0,
0,
7,
4375,
42288,
676,
464,
6227,
2997,
938,
2704,
740,
516,
797,
907,
1478,
823,
842,
951,
992,
993,
1156,
1100,
1006,
1222,
1875,
1127,
945,
962,
1154,
953,
956,
1422,
2809,
1185,
923,
895,
836,
815,
722,
686,
658,
681,
668,
690,
620,
585,
655,
619,
504,
541,
621,
568,
521,
568,
482,
469,
493,
492,
452,
431,
403,
432,
495,
541,
441,
413,
377,
382,
432,
400,
380,
339,
345,
352,
321,
317,
330,
301,
324,
290,
284,
329,
279,
286,
254,
285,
277,
259,
377,
1602,
5662,
4897,
1281,
309,
276,
244,
221,
284,
340,
754,
928,
448,
228,
204,
173,
165,
197,
155,
176,
170,
159,
176,
166,
266,
297,
222,
156,
159,
168,
151,
139,
143,
151,
149,
138,
125,
171,
160,
119,
114,
101,
107,
132,
128,
100,
127,
103,
119,
119,
120,
116,
114,
93,
87,
72,
95,
100,
102,
100,
93,
73,
108,
97,
92,
89,
80,
93,
78,
79,
77,
91,
72,
72,
67,
72,
67,
74,
70,
58,
63,
74,
63,
64,
57,
59,
57,
49,
61,
50,
78,
58,
56,
51,
65,
53,
57,
50,
56,
60,
56,
46,
50,
48,
39,
52,
33,
33,
49,
36,
44,
43,
41,
36,
39,
28,
34,
34,
38,
38,
38,
25,
28,
27,
34,
32,
35,
24,
19,
26,
36,
27,
33,
24,
31,
24,
23,
23,
18,
18,
21,
21,
20,
16,
18,
17,
16,
24,
17,
17,
17,
15,
12,
11,
9,
17,
19,
23,
11,
16,
11,
11,
15,
16,
9,
16,
13,
10,
14,
6,
11,
15,
9,
11,
13,
16,
8,
8,
13,
10,
8,
7,
7,
8,
8,
5,
4,
5,
4,
8,
9,
4,
3,
7,
9,
9,
5,
5,
2,
3,
4,
3,
5,
3,
#ENDOFDATA   :

File: Ti std.msa
#FORMAT      : EMSA/MAS Spectral Data File
#VERSION     : 1.0
#TITLE       : Ti std
#DATE        : 15-MAY-2018
#TIME        : 11:27
#OWNER       : Unknown
#NPOINTS     : 4096
#NCOLUMNS    : 1
#XUNITS      : eV
#YUNITS      : counts
#DATATYPE    : Y
#XPERCHAN    : 9.99856
#OFFSET      : 1.63032
#BEAMKV      : 25
#SIGNALTYPE  : EDS
#ELEVANGLE   : 35
#AZIMANGLE   : 0
#LIVETIME    : 1171.82
#REALTIME    : 1687.44
#PROBECUR    : 0.94651
#TDEADLYR    : 0
#TACTLYR     : 0.045
#TALWIND     : 0.003
#CHOFFSET    : 0.0
#XLABEL      : Energy (eV)
#YLABEL      : Counts
#EDSDET      : SDUTW
##SPECIMEN   : Ti std
##D2STDCMP   : Ti,(Ti:100.0),5.0
##DET_HASH   : 97086dfe-e5c2-9c77-3984-1d0b14bbbf41
##CALIB_HASH : 1a36e884-c26d-3547-51b1-d0bb2efdf95a
##WORKING    : 16.99 mm
##SAMPLE     : <BulkSample id="1">\n<mOrientation id="2">\n<double>0.0</double>\n<double>0.0</double>\n<double>-1.0</double>\n</mOrientation>\n</BulkSample>
#SPECTRUM    :
28,
61,
16885,
149148,
12250,
8857,
11585,
15667,
20586,
25206,
28642,
32013,
34162,
36667,
36684,
37646,
38533,
38625,
38622,
40311,
58009,
36876,
36492,
36964,
34047,
33703,
33129,
32810,
32375,
30208,
30813,
53947,
2878623,
387080,
35837,
376078,
72429,
12901,
13303,
13433,
13096,
12639,
12983,
12922,
12329,
12828,
13486,
12296,
11736,
11815,
11576,
11389,
11266,
10985,
10772,
10444,
10239,
10017,
9838,
9393,
9291,
9188,
9149,
8961,
14677,
14255,
8195,
9489,
9208,
7425,
7592,
7084,
6979,
6685,
6622,
6784,
6374,
5950,
5837,
5619,
5571,
5447,
5237,
5062,
4893,
4939,
4688,
4402,
4565,
4421,
4409,
4049,
3827,
3730,
3421,
3514,
3435,
3255,
3180,
3077,
2743,
2847,
2644,
2578,
2472,
2467,
2364,
2251,
2131,
2139,
2002,
1921,
1893,
1775,
1710,
1636,
1567,
1490,
1493,
1334,
1392,
1187,
1154,
1125,
1045,
1104,
1044,
960,
901,
881,
796,
759,
742,
672,
650,
603,
547,
528,
539,
473,
458,
491,
395,
408,
389,
322,
300,
313,
263,
247,
223,
250,
199,
249,
181,
180,
156,
124,
120,
127,
131,
107,
97,
96,
71,
78,
64,
49,
48,
36,
30,
36,
29,
20,
20,
18,
5,
7,
5,
3,
1,
1,
1,
0,
0,
2,
0,
2,
0,
0,
0,
0,
1,
0,
2,
0,
1,
1,
1,
0,
0,
1,
1,
1,
0,
1,
2,
0,
1,
0,
0,
0,
0,
0,
0,
0,
0,
1,
0,
0,
0,
0,
1,
0,
0,
0,
0,
0,
0,
0,
0,
0,
0,
0,
0,
0,
0,
0,
0,
0,
1,
0,
0,
0,
0,
0,
0,
0,
0,
0,
0,
0,
0,
0,
0,
0,
0,
0,
2,
0,
0,
0,
0,
0,
0,
0,
0,
0,
0,
0,
0,
0,
0,
0,
0,
0,
0,
0,
0,
0,
0,
0,
0,
0,
0,
0,
0,
0,
0,
0,
0,
0,
0,
0,
#ENDOFDATA   :