Folder: NeXLNotebooks/NeXLSpectrum/Zepellin/Standards (part 2)

File: Sr std.msa
#FORMAT      : EMSA/MAS Spectral Data File
#VERSION     : 1.0
#TITLE       : SrF2 std
#DATE        : 15-OCT-2018
#TIME        : 10:06
#OWNER       : Unknown
#NPOINTS     : 4096
#NCOLUMNS    : 1
#XUNITS      : eV
#YUNITS      : counts
#DATATYPE    : Y
#XPERCHAN    : 9.99856
#OFFSET      : 1.63032
#BEAMKV      : 20
#SIGNALTYPE  : EDS
#ELEVANGLE   : 35
#AZIMANGLE   : 0
#LIVETIME    : 1171.72
#REALTIME    : 1522.99
#PROBECUR    : 0.98577
#TDEADLYR    : 0
#TACTLYR     : 0.045
#TALWIND     : 0.003
#CHOFFSET    : 0.0
#XLABEL      : Energy (eV)
#YLABEL      : Counts
#EDSDET      : SDUTW
##SPECIMEN   : SrF2 std
##D2STDCMP   : SrF2,(F:30.2477),(Sr:69.7523),5.0
##DET_HASH   : 97086dfe-e5c2-9c77-3984-1d0b14bbbf41
##CALIB_HASH : 1a36e884-c26d-3547-51b1-d0bb2efdf95a
##WORKING    : 17.0 mm
##SAMPLE     : <BulkSample id="1">\n<mOrientation id="2">\n<double>0.0</double>\n<double>0.0</double>\n<double>-1.0</double>\n</mOrientation>\n</BulkSample>
#SPECTRUM    :
151257,
342,
20867,
9752,
19965,
340152,
23734,
29797,
37080,
43156,
47833,
83344,
81320,
2033947,
146183,
22503,
25156,
21751,
24575,
23203,
23517,
24052,
24030,
24226,
24406,
23883,
27633,
24182,
22492,
22081,
21211,
20885,
20874,
19454,
19264,
18948,
18335,
17765,
17318,
17262,
16349,
15757,
15594,
15086,
14388,
14298,
15019,
13124,
12790,
12581,
12320,
11787,
11316,
11003,
10844,
10259,
10068,
9857,
9578,
9247,
8999,
8893,
8537,
8202,
8182,
7700,
7536,
7424,
7138,
6766,
6650,
6596,
6263,
6112,
6050,
5964,
5622,
5359,
5191,
4965,
4898,
4724,
4377,
4402,
4177,
4150,
3875,
3695,
3628,
3445,
3513,
3213,
3070,
2851,
2753,
2630,
2574,
2473,
2422,
2474,
7278,
18985,
6738,
1947,
1744,
1646,
1666,
1553,
1469,
1328,
1289,
1249,
1745,
3278,
1904,
1227,
868,
764,
725,
682,
655,
574,
544,
524,
445,
422,
394,
367,
299,
281,
258,
226,
195,
181,
149,
145,
129,
112,
79,
59,
35,
17,
8,
5,
3,
4,
4,
1,
1,
2,
4,
3,
0,
1,
1,
2,
1,
1,
2,
0,
1,
2,
0,
1,
1,
1,
2,
0,
1,
2,
2,
0,
0,
0,
1,
0,
0,
0,
0,
0,
0,
0,
0,
0,
0,
0,
0,
0,
0,
0,
0,
0,
0,
0,
0,
1,
0,
0,
2,
1,
0,
0,
0,
0,
0,
0,
0,
0,
0,
0,
0,
0,
0,
0,
0,
0,
0,
0,
0,
0,
0,
0,
0,
0,
0,
0,
0,
0,
0,
1,
0,
0,
0,
0,
0,
0,
0,
0,
0,
0,
0,
0,
0,
0,
0,
0,
0,
0,
0,
0,
0,
0,
0,
0,
0,
0,
0,
0,
0,
0,
0,
0,
0,
0,
0,
0,
0,
0,
0,
0,
0,
0,
0,
0,
0,
0,
0,
0,
0,
0,
0,
0,
0,
0,
0,
0,
0,
0,
0,
0,
0,
0,
0,
0,
#ENDOFDATA   :

File: Zn std.msa
#FORMAT      : EMSA/MAS Spectral Data File
#VERSION     : 1.0
#TITLE       : Zn std
#DATE        : 11-OCT-2018
#TIME        : 02:24
#OWNER       : Unknown
#NPOINTS     : 4096
#NCOLUMNS    : 1
#XUNITS      : eV
#YUNITS      : counts
#DATATYPE    : Y
#XPERCHAN    : 9.99856
#OFFSET      : 1.63032
#BEAMKV      : 20
#SIGNALTYPE  : EDS
#ELEVANGLE   : 35
#AZIMANGLE   : 0
#LIVETIME    : 1157.03
#REALTIME    : 1650.23
#PROBECUR    : 0.97292
#TDEADLYR    : 0
#TACTLYR     : 0.045
#TALWIND     : 0.003
#CHOFFSET    : 0.0
#XLABEL      : Energy (eV)
#YLABEL      : Counts
#EDSDET      : SDUTW
##SPECIMEN   : Zn std
##D2STDCMP   : Zn,(Zn:100.0),5.0
##DET_HASH   : 97086dfe-e5c2-9c77-3984-1d0b14bbbf41
##CALIB_HASH : 1a36e884-c26d-3547-51b1-d0bb2efdf95a
##WORKING    : 17.0 mm
##SAMPLE     : <BulkSample id="1">\n<mOrientation id="2">\n<double>0.0</double>\n<double>0.0</double>\n<double>-1.0</double>\n</mOrientation>\n</BulkSample>
#SPECTRUM    :
189979,
182,
27586,
15252,
30142,
46903,
159951,
2206240,
57079,
17200,
19280,
22656,
24763,
28201,
31045,
31681,
30292,
31111,
31599,
32168,
31897,
31968,
31121,
30634,
30438,
29484,
29053,
27959,
27365,
26591,
25866,
25007,
24522,
23487,
22734,
22419,
21495,
20937,
20432,
20124,
19113,
18302,
17834,
17184,
16692,
16721,
17538,
15087,
14668,
15290,
14221,
13628,
13147,
13298,
12532,
12222,
11872,
11588,
11655,
11812,
13895,
215495,
417031,
20261,
9607,
8905,
9418,
11409,
62568,
41664,
7356,
6358,
6229,
6090,
5940,
6218,
6139,
5492,
5315,
5124,
5091,
4927,
4624,
4560,
4400,
4128,
4171,
3923,
3871,
3704,
3695,
3409,
3218,
3173,
3031,
2861,
2813,
2684,
2553,
2444,
2330,
2180,
2119,
2089,
1916,
1832,
1682,
1679,
1630,
1478,
1411,
1340,
1314,
1144,
1171,
1123,
1007,
1021,
836,
796,
776,
720,
652,
735,
677,
542,
518,
431,
368,
395,
372,
324,
274,
239,
203,
183,
150,
125,
105,
94,
87,
52,
29,
15,
11,
12,
3,
6,
2,
8,
6,
9,
3,
3,
5,
1,
5,
6,
5,
3,
1,
0,
1,
1,
4,
1,
1,
2,
2,
0,
0,
0,
0,
2,
1,
1,
0,
1,
1,
2,
1,
0,
2,
0,
0,
0,
0,
1,
0,
0,
0,
0,
0,
1,
0,
0,
1,
0,
0,
0,
0,
0,
0,
0,
0,
1,
0,
0,
0,
0,
0,
0,
0,
0,
0,
0,
0,
0,
0,
0,
0,
0,
0,
0,
0,
0,
1,
0,
0,
0,
0,
0,
0,
0,
0,
0,
0,
0,
0,
0,
0,
0,
0,
0,
0,
0,
0,
0,
0,
0,
0,
0,
0,
0,
0,
0,
0,
0,
0,
0,
0,
0,
0,
0,
0,
0,
0,
0,
0,
0,
0,
0,
0,
0,
0,
0,
0,
0,
0,
0,
0,
0,
0,
0,
0,
0,
0,
0,
0,
0,
0,
0,
0,
0,
#ENDOFDATA   :

File: Zr std.msa
#FORMAT      : EMSA/MAS Spectral Data File
#VERSION     : 1.0
#TITLE       : Zr std
#DATE        : 15-OCT-2018
#TIME        : 10:20
#OWNER       : Unknown
#NPOINTS     : 4096
#NCOLUMNS    : 1
#XUNITS      : eV
#YUNITS      : counts
#DATATYPE    : Y
#XPERCHAN    : 9.99856
#OFFSET      : 1.63032
#BEAMKV      : 20
#SIGNALTYPE  : EDS
#ELEVANGLE   : 35
#AZIMANGLE   : 0
#LIVETIME    : 1156.32
#REALTIME    : 1641.54
#PROBECUR    : 0.98709
#TDEADLYR    : 0
#TACTLYR     : 0.045
#TALWIND     : 0.003
#CHOFFSET    : 0.0
#XLABEL      : Energy (eV)
#YLABEL      : Counts
#EDSDET      : SDUTW
##SPECIMEN   : Zr std
##D2STDCMP   : Zr,(Zr:100.0),8.0
##DET_HASH   : 97086dfe-e5c2-9c77-3984-1d0b14bbbf41
##CALIB_HASH : 1a36e884-c26d-3547-51b1-d0bb2efdf95a
##WORKING    : 17.0 mm
##SAMPLE     : <BulkSample id="1">\n<mOrientation id="2">\n<double>0.0</double>\n<double>0.0</double>\n<double>-1.0</double>\n</mOrientation>\n</BulkSample>
#SPECTRUM    :
144760,
1626,
58441,
21532,
22938,
26133,
33457,
43168,
51276,
57368,
62678,
66490,
67729,
167315,
338635,
1737533,
181382,
27616,
34889,
23929,
25170,
25768,
26715,
26908,
27545,
27861,
27676,
27867,
28064,
31814,
32180,
27239,
26078,
25415,
25069,
24147,
23595,
23422,
22972,
23190,
21866,
21028,
20905,
20149,
19526,
19630,
20372,
18063,
17719,
17168,
17100,
16293,
15782,
15673,
15171,
14574,
14313,
14040,
13692,
13101,
13035,
12344,
12111,
11719,
11414,
11162,
10984,
10653,
10242,
10032,
9740,
9265,
9306,
8882,
8796,
8743,
8211,
7856,
7476,
7439,
7154,
6943,
6580,
6450,
6154,
6062,
5731,
5612,
5445,
5111,
5263,
4813,
4677,
4478,
4094,
4000,
3951,
3709,
3357,
3382,
3387,
3161,
2982,
2869,
2687,
2657,
2519,
2319,
2213,
2217,
2048,
2670,
6634,
6105,
2055,
1475,
1425,
1351,
1265,
1201,
1077,
1027,
963,
851,
766,
950,
1466,
998,
650,
548,
449,
387,
381,
342,
346,
242,
186,
200,
161,
150,
106,
77,
36,
18,
10,
9,
5,
3,
1,
4,
4,
1,
3,
7,
2,
7,
1,
3,
0,
2,
3,
1,
2,
0,
1,
0,
1,
0,
3,
4,
1,
2,
0,
0,
1,
0,
1,
1,
0,
0,
2,
1,
0,
1,
0,
1,
1,
0,
0,
2,
0,
0,
0,
0,
0,
0,
0,
1,
1,
0,
0,
0,
0,
0,
0,
0,
0,
0,
0,
1,
0,
0,
0,
0,
0,
0,
0,
0,
0,
0,
0,
0,
0,
0,
0,
0,
0,
1,
0,
0,
0,
0,
0,
0,
0,
0,
0,
0,
0,
0,
0,
0,
0,
0,
0,
0,
0,
0,
0,
0,
0,
0,
0,
0,
0,
0,
0,
0,
0,
0,
0,
0,
0,
0,
0,
0,
0,
0,
0,
0,
0,
0,
0,
0,
0,
0,
0,
0,
0,
0,
0,
0,
0,
0,
0,
0,
0,
0,
0,
0,
0,
0,
0,
0,
#ENDOFDATA   :