Folder: NeXLNotebooks/NeXLSpectrum/Zepellin/Standards

File: Al std.msa
#FORMAT      : EMSA/MAS Spectral Data File
#VERSION     : 1.0
#TITLE       : Al std
#DATE        : 11-OCT-2018
#TIME        : 11:56
#OWNER       : Unknown
#NPOINTS     : 4096
#NCOLUMNS    : 1
#XUNITS      : eV
#YUNITS      : counts
#DATATYPE    : Y
#XPERCHAN    : 9.99856
#OFFSET      : 1.63032
#BEAMKV      : 20
#SIGNALTYPE  : EDS
#ELEVANGLE   : 35
#AZIMANGLE   : 0
#LIVETIME    : 1151.25
#REALTIME    : 1808.52
#PROBECUR    : 0.97396
#TDEADLYR    : 0
#TACTLYR     : 0.045
#TALWIND     : 0.003
#CHOFFSET    : 0.0
#XLABEL      : Energy (eV)
#YLABEL      : Counts
#EDSDET      : SDUTW
##SPECIMEN   : Al std
##D2STDCMP   : Al,(Al:100.0),1.0
##DET_HASH   : 97086dfe-e5c2-9c77-3984-1d0b14bbbf41
##CALIB_HASH : 1a36e884-c26d-3547-51b1-d0bb2efdf95a
##WORKING    : 17.0 mm
##SAMPLE     : <BulkSample id="1">\n<mOrientation id="2">\n<double>0.0</double>\n<double>0.0</double>\n<double>-1.0</double>\n</mOrientation>\n</BulkSample>
#SPECTRUM    :
199436,
138,
10275,
9469,
27592,
26385,
35219,
43223,
50925,
70930,
384239,
2483838,
11697,
11114,
11978,
12613,
13457,
13768,
14545,
14836,
15185,
48798,
18117,
13569,
13359,
12924,
12518,
12435,
12198,
11619,
11420,
10906,
10682,
10284,
9803,
9498,
9222,
8955,
8631,
8496,
8086,
7713,
7574,
7191,
6823,
6592,
6867,
6191,
6164,
5782,
5571,
5527,
5220,
5203,
4903,
4640,
4563,
4493,
4362,
4200,
3901,
3876,
3639,
3588,
3467,
3452,
3300,
3149,
2997,
2990,
2931,
2790,
2670,
2552,
2526,
2469,
2418,
2263,
2122,
2018,
1945,
1882,
1787,
1771,
1684,
1649,
1497,
1539,
1482,
1353,
1380,
1294,
1248,
1174,
1089,
1005,
994,
961,
916,
802,
836,
760,
730,
734,
651,
618,
591,
575,
520,
533,
464,
444,
395,
359,
319,
352,
322,
296,
280,
272,
200,
218,
168,
198,
181,
173,
144,
128,
100,
107,
91,
86,
90,
74,
57,
43,
42,
29,
27,
16,
25,
8,
13,
2,
3,
2,
0,
1,
1,
0,
0,
1,
1,
0,
0,
0,
0,
0,
1,
0,
0,
0,
0,
0,
0,
0,
1,
0,
0,
0,
0,
0,
0,
1,
0,
0,
1,
0,
0,
0,
0,
0,
0,
0,
0,
0,
0,
0,
0,
0,
0,
0,
0,
0,
0,
0,
0,
0,
0,
1,
0,
0,
0,
0,
0,
0,
0,
0,
0,
0,
0,
0,
0,
0,
0,
0,
0,
0,
0,
0,
0,
0,
0,
0,
0,
0,
0,
0,
0,
0,
0,
0,
0,
0,
0,
0,
0,
0,
0,
0,
0,
0,
0,
0,
0,
0,
0,
0,
0,
0,
0,
0,
0,
0,
0,
0,
0,
0,
0,
0,
0,
0,
0,
0,
0,
0,
0,
0,
0,
0,
0,
0,
0,
0,
0,
0,
0,
0,
0,
0,
0,
0,
0,
0,
0,
0,
0,
0,
0,
0,
0,
0,
0,
0,
#ENDOFDATA   :

File: C std.msa
#FORMAT      : EMSA/MAS Spectral Data File
#VERSION     : 1.0
#TITLE       : C std
#DATE        : 11-OCT-2018
#TIME        : 11:35
#OWNER       : Unknown
#NPOINTS     : 4096
#NCOLUMNS    : 1
#XUNITS      : eV
#YUNITS      : counts
#DATATYPE    : Y
#XPERCHAN    : 9.99856
#OFFSET      : 1.63032
#BEAMKV      : 20
#SIGNALTYPE  : EDS
#ELEVANGLE   : 35
#AZIMANGLE   : 0
#LIVETIME    : 1184.6
#REALTIME    : 1332.33
#PROBECUR    : 0.97372
#TDEADLYR    : 0
#TACTLYR     : 0.045
#TALWIND     : 0.003
#CHOFFSET    : 0.0
#XLABEL      : Energy (eV)
#YLABEL      : Counts
#EDSDET      : SDUTW
##SPECIMEN   : C std
##D2STDCMP   : C,(C:100.0),1.9
##DET_HASH   : 97086dfe-e5c2-9c77-3984-1d0b14bbbf41
##CALIB_HASH : 1a36e884-c26d-3547-51b1-d0bb2efdf95a
##WORKING    : 17.0 mm
##SAMPLE     : <BulkSample id="1">\n<mOrientation id="2">\n<double>0.0</double>\n<double>0.0</double>\n<double>-1.0</double>\n</mOrientation>\n</BulkSample>
#SPECTRUM    :
194774,
917,
1402981,
7915,
9576,
5472,
7636,
10691,
13215,
15145,
15889,
15663,
18647,
15168,
13029,
12744,
12132,
11251,
10387,
9762,
9315,
8642,
8236,
7729,
7389,
6866,
6586,
6316,
5972,
5694,
5178,
5029,
4682,
4526,
4316,
3949,
3902,
3762,
3539,
3694,
3218,
3138,
3054,
2943,
2739,
2900,
3038,
2445,
2295,
2238,
2206,
2063,
1942,
2036,
1880,
1786,
1725,
1671,
1548,
1558,
1537,
1435,
1361,
1295,
1201,
1242,
1183,
1133,
1022,
1047,
1001,
970,
911,
885,
857,
803,
791,
746,
693,
681,
647,
647,
583,
577,
525,
564,
489,
469,
458,
452,
430,
420,
383,
392,
357,
384,
400,
288,
279,
289,
209,
245,
212,
206,
181,
179,
181,
169,
171,
157,
140,
108,
123,
108,
109,
99,
84,
97,
80,
66,
59,
69,
55,
53,
53,
54,
38,
30,
25,
17,
24,
24,
12,
18,
17,
14,
13,
4,
8,
6,
3,
8,
1,
3,
0,
0,
0,
0,
0,
0,
0,
0,
0,
0,
0,
0,
0,
0,
0,
0,
0,
0,
0,
0,
0,
0,
0,
0,
0,
0,
0,
0,
0,
0,
0,
0,
0,
0,
0,
0,
0,
0,
0,
0,
0,
0,
0,
0,
0,
0,
0,
0,
0,
0,
0,
0,
0,
0,
0,
0,
0,
0,
0,
0,
0,
0,
0,
0,
0,
0,
0,
0,
0,
0,
0,
0,
0,
0,
0,
0,
0,
0,
0,
0,
0,
0,
0,
0,
0,
0,
0,
0,
0,
0,
0,
0,
0,
0,
0,
0,
0,
0,
0,
0,
0,
0,
0,
0,
0,
0,
0,
0,
0,
0,
0,
0,
0,
0,
0,
0,
0,
0,
0,
0,
0,
0,
0,
0,
0,
0,
0,
0,
0,
0,
0,
0,
0,
0,
0,
0,
0,
0,
0,
0,
0,
0,
0,
0,
0,
0,
0,
0,
0,
0,
#ENDOFDATA   :

File: Ce std.msa
#FORMAT      : EMSA/MAS Spectral Data File
#VERSION     : 1.0
#TITLE       : Trimmed[CeO2 std,419 eV,601 eV]
#DATE        : 15-OCT-2018
#TIME        : 00:01
#OWNER       : Unknown
#NPOINTS     : 4096
#NCOLUMNS    : 1
#XUNITS      : eV
#YUNITS      : counts
#DATATYPE    : Y
#XPERCHAN    : 9.99856
#OFFSET      : 1.63032
#BEAMKV      : 20
#SIGNALTYPE  : EDS
#ELEVANGLE   : 35
#AZIMANGLE   : 0
#LIVETIME    : 1171.78
#REALTIME    : 1518.83
#PROBECUR    : 0.98838
#TDEADLYR    : 0
#TACTLYR     : 0.045
#TALWIND     : 0.003
#CHOFFSET    : 0.0
#XLABEL      : Energy (eV)
#YLABEL      : Counts
#EDSDET      : SDUTW
##SPECIMEN   : Trimmed[CeO2 std,419 eV,601 eV]
##D2STDCMP   : CeO2,(O:18.5915),(Ce:81.4085),5.0
##DET_HASH   : 97086dfe-e5c2-9c77-3984-1d0b14bbbf41
##CALIB_HASH : 1a36e884-c26d-3547-51b1-d0bb2efdf95a
##WORKING    : 17.0 mm
##SAMPLE     : <BulkSample id="1">\n<mOrientation id="2">\n<double>0.0</double>\n<double>0.0</double>\n<double>-1.0</double>\n</mOrientation>\n</BulkSample>
#SPECTRUM    :
148893,
309,
43033,
25607.9,
40584.7,
98614,
100794,
26816,
38729,
27519,
29045,
31328,
33057,
35327,
34963,
36647,
37986,
38458,
39321,
39257,
39394,
39643,
42962,
38192,
37648,
38261,
36386,
35150,
34494,
33321,
37771,
48575,
31776,
32535,
221618,
385022,
31292,
104870,
250550,
48649,
126706,
34299,
21502,
51745,
27048,
31590,
22730,
18260,
15533,
15342,
15019,
14858,
14400,
14533,
13972,
13701,
13545,
13198,
12996,
12856,
12302,
12058,
11686,
11273,
10994,
11003,
10856,
10451,
10132,
10183,
9728,
9543,
9425,
9163,
8777,
8880,
8364,
7966,
7801,
7435,
7263,
6997,
6669,
6408,
6209,
6035,
5831,
5713,
5533,
5329,
5320,
4831,
4716,
4448,
4316,
4217,
3967,
3885,
3738,
3420,
3373,
3201,
3069,
2853,
2805,
2669,
2578,
2396,
2187,
2060,
2091,
1909,
1816,
1684,
1617,
1444,
1337,
1352,
1145,
1194,
999,
944,
856,
831,
727,
711,
621,
554,
487,
448,
398,
330,
345,
276,
223,
171,
132,
91,
51,
22,
13,
4,
6,
7,
10,
5,
9,
6,
4,
9,
5,
3,
6,
2,
3,
2,
4,
2,
2,
10,
3,
1,
2,
3,
3,
0,
3,
0,
1,
1,
2,
0,
1,
1,
1,
2,
0,
0,
1,
0,
1,
0,
1,
0,
0,
1,
0,
0,
0,
0,
0,
0,
0,
0,
0,
1,
1,
0,
0,
0,
0,
0,
0,
0,
0,
0,
1,
0,
0,
0,
0,
0,
0,
0,
0,
0,
0,
0,
0,
0,
0,
0,
0,
0,
0,
0,
0,
0,
0,
0,
0,
0,
0,
0,
0,
0,
0,
0,
0,
0,
0,
0,
0,
0,
0,
0,
0,
0,
0,
0,
0,
0,
0,
0,
0,
0,
0,
0,
0,
0,
0,
0,
0,
0,
0,
0,
0,
0,
0,
0,
0,
0,
0,
0,
0,
0,
0,
0,
0,
0,
0,
0,
0,
0,
0,
0,
0,
0,
0,
0,
0,
0,
0,
0,
#ENDOFDATA   :

File: Cl std.msa
#FORMAT      : EMSA/MAS Spectral Data File
#VERSION     : 1.0
#TITLE       : NaCl std
#DATE        : 11-OCT-2018
#TIME        : 00:38
#OWNER       : Unknown
#NPOINTS     : 4096
#NCOLUMNS    : 1
#XUNITS      : eV
#YUNITS      : counts
#DATATYPE    : Y
#XPERCHAN    : 9.99856
#OFFSET      : 1.63032
#BEAMKV      : 20
#SIGNALTYPE  : EDS
#ELEVANGLE   : 35
#AZIMANGLE   : 0
#LIVETIME    : 1156.51
#REALTIME    : 1587.85
#PROBECUR    : 0.97454
#TDEADLYR    : 0
#TACTLYR     : 0.045
#TALWIND     : 0.003
#CHOFFSET    : 0.0
#XLABEL      : Energy (eV)
#YLABEL      : Counts
#EDSDET      : SDUTW
##SPECIMEN   : NaCl std
##D2STDCMP   : NaCl,(Na:39.3372),(Cl:60.6628),5.0
##DET_HASH   : 97086dfe-e5c2-9c77-3984-1d0b14bbbf41
##CALIB_HASH : 1a36e884-c26d-3547-51b1-d0bb2efdf95a
##WORKING    : 17.0 mm
##SAMPLE     : <BulkSample id="1">\n<mOrientation id="2">\n<double>0.0</double>\n<double>0.0</double>\n<double>-1.0</double>\n</mOrientation>\n</BulkSample>
#SPECTRUM    :
196570,
300,
38144,
7324,
18775,
21837,
52270,
342435,
101661,
21832,
24278,
26072,
30281,
28032,
26021,
30176,
28890,
28997,
145135,
1769077,
222032,
17666,
12898,
13088,
12894,
13095,
19893,
13061,
12522,
11928,
11662,
11255,
10805,
10358,
10234,
10018,
9656,
11374,
11625,
9808,
8351,
8100,
8164,
7746,
7262,
7196,
7317,
6417,
6391,
6227,
6043,
5835,
5573,
5485,
5237,
5201,
4740,
4841,
4563,
4293,
4234,
4144,
4167,
3929,
3730,
3481,
3416,
3412,
3301,
3126,
3103,
2974,
2831,
2720,
2634,
2656,
2528,
2397,
2261,
2173,
2060,
1978,
1976,
1869,
1882,
1710,
1666,
1581,
1562,
1432,
1465,
1362,
1307,
1237,
1174,
1216,
1148,
1063,
988,
979,
886,
824,
768,
713,
683,
689,
617,
569,
527,
514,
463,
402,
436,
392,
354,
311,
291,
294,
272,
241,
225,
189,
188,
158,
150,
133,
109,
132,
97,
102,
85,
53,
56,
58,
48,
31,
20,
17,
7,
11,
3,
3,
1,
0,
1,
0,
0,
1,
1,
2,
0,
0,
0,
2,
0,
0,
0,
0,
0,
0,
0,
0,
1,
1,
0,
0,
0,
0,
0,
0,
0,
0,
0,
0,
0,
0,
0,
0,
0,
0,
0,
0,
0,
0,
0,
0,
0,
0,
0,
0,
0,
0,
0,
0,
0,
0,
0,
0,
0,
0,
0,
0,
0,
0,
0,
0,
0,
0,
0,
0,
0,
0,
0,
0,
0,
0,
0,
0,
0,
0,
0,
0,
0,
0,
0,
0,
0,
0,
0,
0,
0,
0,
0,
0,
0,
0,
0,
0,
0,
0,
0,
0,
0,
0,
0,
0,
0,
0,
0,
0,
0,
0,
0,
0,
0,
0,
0,
0,
0,
0,
0,
0,
0,
0,
0,
0,
0,
0,
0,
0,
0,
0,
0,
0,
0,
0,
0,
0,
0,
0,
0,
0,
0,
0,
0,
0,
0,
0,
0,
0,
0,
0,
0,
0,
#ENDOFDATA   :

File: Cr std.msa
#FORMAT      : EMSA/MAS Spectral Data File
#VERSION     : 1.0
#TITLE       : Cr std
#DATE        : 11-OCT-2018
#TIME        : 01:35
#OWNER       : Unknown
#NPOINTS     : 4096
#NCOLUMNS    : 1
#XUNITS      : eV
#YUNITS      : counts
#DATATYPE    : Y
#XPERCHAN    : 9.99856
#OFFSET      : 1.63032
#BEAMKV      : 20
#SIGNALTYPE  : EDS
#ELEVANGLE   : 35
#AZIMANGLE   : 0
#LIVETIME    : 1162.73
#REALTIME    : 1542.76
#PROBECUR    : 0.97561
#TDEADLYR    : 0
#TACTLYR     : 0.045
#TALWIND     : 0.003
#CHOFFSET    : 0.0
#XLABEL      : Energy (eV)
#YLABEL      : Counts
#EDSDET      : SDUTW
##SPECIMEN   : Cr std
##D2STDCMP   : Cr,(Cr:100.0),5.0
##DET_HASH   : 97086dfe-e5c2-9c77-3984-1d0b14bbbf41
##CALIB_HASH : 1a36e884-c26d-3547-51b1-d0bb2efdf95a
##WORKING    : 17.0 mm
##SAMPLE     : <BulkSample id="1">\n<mOrientation id="2">\n<double>0.0</double>\n<double>0.0</double>\n<double>-1.0</double>\n</mOrientation>\n</BulkSample>
#SPECTRUM    :
190991,
132,
15937,
36273,
374709,
10456,
11733,
15923,
20696,
24945,
28489,
31246,
34391,
35750,
33063,
34043,
34306,
34757,
34056,
33513,
32231,
31720,
30547,
29995,
29216,
27897,
34947,
26785,
25287,
24469,
24436,
22945,
22201,
21857,
20824,
20811,
19961,
23438,
383113,
1253206,
24415,
19303,
125656,
110078,
10488,
10832,
13056,
10030,
9762,
9530,
9597,
9346,
9123,
9141,
8813,
8406,
8307,
8029,
7841,
7574,
7445,
7387,
7097,
6901,
6884,
6440,
6468,
6229,
5966,
5850,
5873,
5491,
5314,
5131,
5084,
5009,
4883,
6398,
5375,
4307,
4105,
4582,
3952,
3738,
3607,
3506,
3232,
3108,
3187,
2892,
2835,
2740,
2574,
2483,
2439,
2212,
2185,
2131,
2018,
1876,
1864,
1712,
1647,
1557,
1468,
1501,
1332,
1329,
1210,
1122,
1123,
984,
1030,
868,
910,
840,
764,
674,
704,
604,
555,
491,
493,
457,
426,
386,
359,
343,
291,
265,
232,
219,
204,
168,
156,
132,
112,
84,
91,
49,
47,
32,
19,
11,
2,
6,
7,
2,
6,
6,
6,
3,
4,
6,
2,
2,
2,
3,
4,
1,
1,
0,
0,
0,
0,
1,
0,
3,
0,
3,
1,
0,
0,
0,
1,
0,
1,
0,
1,
0,
0,
0,
0,
1,
0,
0,
0,
0,
1,
1,
0,
0,
0,
0,
0,
0,
0,
0,
0,
0,
0,
0,
0,
0,
0,
0,
0,
0,
0,
0,
0,
0,
0,
0,
0,
0,
0,
0,
0,
0,
0,
0,
0,
0,
0,
0,
0,
0,
0,
0,
0,
0,
0,
0,
0,
0,
0,
0,
0,
0,
0,
0,
0,
0,
0,
0,
0,
0,
0,
0,
0,
0,
0,
0,
0,
0,
0,
0,
0,
0,
0,
0,
0,
0,
0,
0,
0,
0,
0,
0,
0,
0,
0,
0,
0,
0,
0,
0,
0,
0,
0,
0,
0,
0,
0,
0,
0,
0,
0,
0,
0,
0,
0,
0,
#ENDOFDATA   :

File: Cu std.msa
#FORMAT      : EMSA/MAS Spectral Data File
#VERSION     : 1.0
#TITLE       : Cu std
#DATE        : 11-OCT-2018
#TIME        : 02:17
#OWNER       : Unknown
#NPOINTS     : 4096
#NCOLUMNS    : 1
#XUNITS      : eV
#YUNITS      : counts
#DATATYPE    : Y
#XPERCHAN    : 9.99856
#OFFSET      : 1.63032
#BEAMKV      : 20
#SIGNALTYPE  : EDS
#ELEVANGLE   : 35
#AZIMANGLE   : 0
#LIVETIME    : 1159.85
#REALTIME    : 1599.29
#PROBECUR    : 0.97242
#TDEADLYR    : 0
#TACTLYR     : 0.045
#TALWIND     : 0.003
#CHOFFSET    : 0.0
#XLABEL      : Energy (eV)
#YLABEL      : Counts
#EDSDET      : SDUTW
##SPECIMEN   : Cu std
##D2STDCMP   : Cu,(Cu:100.0),8.9
##DET_HASH   : 97086dfe-e5c2-9c77-3984-1d0b14bbbf41
##CALIB_HASH : 1a36e884-c26d-3547-51b1-d0bb2efdf95a
##WORKING    : 17.0 mm
##SAMPLE     : <BulkSample id="1">\n<mOrientation id="2">\n<double>0.0</double>\n<double>0.0</double>\n<double>-1.0</double>\n</mOrientation>\n</BulkSample>
#SPECTRUM    :
188926,
190,
31810,
16887,
34441,
53027,
302571,
719919,
15757,
18189,
21738,
24811,
26437,
33429,
28208,
29895,
31434,
32731,
32496,
33128,
32453,
32086,
31732,
30872,
30649,
29645,
28707,
27922,
27456,
26485,
25550,
24552,
24041,
23131,
22638,
22209,
21210,
20310,
19902,
20030,
18576,
17959,
17874,
16961,
16668,
18139,
17517,
14961,
14601,
14303,
13951,
13730,
13052,
12916,
12697,
12972,
19375,
427806,
328243,
13715,
10317,
10284,
11620,
49501,
73272,
9570,
6957,
6908,
6697,
6667,
6923,
6402,
6145,
5956,
5888,
5933,
5541,
5390,
5306,
5084,
4860,
4712,
4664,
4415,
4398,
4119,
4090,
3896,
3774,
3773,
3448,
3397,
3200,
3168,
3025,
2803,
2704,
2618,
2529,
2270,
2273,
2105,
2013,
1922,
1885,
1825,
1667,
1561,
1483,
1431,
1385,
1233,
1208,
1171,
1184,
1288,
1004,
889,
829,
794,
753,
731,
688,
546,
530,
499,
436,
421,
378,
339,
287,
296,
274,
233,
207,
182,
143,
126,
109,
92,
58,
32,
18,
14,
3,
6,
4,
3,
6,
5,
4,
3,
4,
7,
4,
3,
2,
3,
1,
2,
2,
1,
0,
0,
0,
1,
2,
1,
0,
3,
2,
0,
1,
3,
0,
1,
0,
2,
1,
1,
1,
1,
1,
0,
1,
0,
0,
0,
2,
0,
0,
0,
0,
0,
0,
0,
0,
0,
0,
0,
0,
0,
0,
0,
0,
0,
0,
0,
0,
0,
0,
0,
0,
0,
0,
0,
0,
0,
0,
0,
0,
0,
0,
0,
0,
0,
0,
0,
0,
0,
0,
0,
0,
0,
0,
0,
0,
0,
0,
0,
0,
0,
0,
0,
0,
0,
0,
0,
0,
0,
0,
0,
0,
0,
0,
0,
0,
0,
0,
0,
0,
0,
0,
0,
0,
0,
0,
0,
0,
0,
0,
0,
0,
0,
0,
0,
0,
0,
0,
0,
0,
0,
0,
0,
0,
0,
0,
0,
0,
0,
0,
0,
0,
0,
#ENDOFDATA   :

File: Nd std.msa
#FORMAT      : EMSA/MAS Spectral Data File
#VERSION     : 1.0
#TITLE       : Trimmed[NdF2 std,571 eV,848 eV]
#DATE        : 15-OCT-2018
#TIME        : 00:35
#OWNER       : Unknown
#NPOINTS     : 4096
#NCOLUMNS    : 1
#XUNITS      : eV
#YUNITS      : counts
#DATATYPE    : Y
#XPERCHAN    : 9.99856
#OFFSET      : 1.63032
#BEAMKV      : 20
#SIGNALTYPE  : EDS
#ELEVANGLE   : 35
#AZIMANGLE   : 0
#LIVETIME    : 1147.43
#REALTIME    : 1484.4
#PROBECUR    : 0.98828
#TDEADLYR    : 0
#TACTLYR     : 0.045
#TALWIND     : 0.003
#CHOFFSET    : 0.0
#XLABEL      : Energy (eV)
#YLABEL      : Counts
#EDSDET      : SDUTW
##SPECIMEN   : Trimmed[NdF2 std,571 eV,848 eV]
##D2STDCMP   : NdF2,(F:20.8499),(Nd:79.1501),5.0
##DET_HASH   : 97086dfe-e5c2-9c77-3984-1d0b14bbbf41
##CALIB_HASH : 1a36e884-c26d-3547-51b1-d0bb2efdf95a
##WORKING    : 17.0 mm
##SAMPLE     : <BulkSample id="1">\n<mOrientation id="2">\n<double>0.0</double>\n<double>0.0</double>\n<double>-1.0</double>\n</mOrientation>\n</BulkSample>
#SPECTRUM    :
145332,
183,
38322,
24003,
48766,
42414.25,
36062.5,
151882,
28949,
37499,
28656,
34386,
29190,
31336,
30774,
32306,
33113,
33777,
34413,
35114,
35011,
34837,
34265,
33619,
33575,
35657,
32210,
31181,
30770,
30375,
28749,
28660,
28059,
45726,
27840,
25832,
28460,
342067,
158887,
26128,
41152,
255289,
59346,
57476,
63346,
18374,
22558,
45450,
20181,
25213,
17145,
15795,
13073,
13040,
12842,
12455,
11987,
11969,
11732,
11427,
11234,
10928,
10660,
10400,
10199,
9975,
9935,
9378,
9246,
9067,
8820,
8444,
8433,
8183,
7953,
8177,
7728,
7187,
7457,
6931,
6744,
6574,
6237,
6024,
5838,
5842,
5446,
5315,
5089,
5023,
4963,
4592,
4486,
4202,
3975,
3794,
3760,
3575,
3409,
3222,
3111,
2896,
2808,
2744,
2553,
2604,
2462,
2342,
2223,
2032,
1942,
1880,
1759,
1669,
1572,
1482,
1438,
1263,
1266,
1146,
1091,
1026,
913,
856,
785,
752,
698,
588,
564,
509,
505,
423,
388,
335,
286,
263,
249,
189,
158,
109,
114,
64,
35,
16,
6,
7,
8,
4,
6,
5,
8,
3,
2,
2,
6,
6,
5,
1,
6,
3,
3,
2,
1,
3,
2,
0,
3,
1,
0,
2,
4,
2,
3,
1,
0,
0,
0,
0,
0,
0,
1,
0,
1,
0,
0,
0,
0,
0,
0,
0,
1,
0,
1,
0,
0,
1,
0,
0,
0,
0,
1,
0,
0,
0,
0,
1,
0,
0,
0,
0,
0,
0,
0,
0,
0,
0,
0,
0,
0,
0,
0,
0,
0,
0,
0,
0,
0,
0,
0,
0,
0,
0,
0,
0,
0,
0,
0,
0,
0,
0,
0,
0,
0,
0,
0,
0,
0,
0,
0,
0,
0,
0,
0,
0,
0,
0,
0,
0,
0,
0,
0,
0,
0,
0,
0,
0,
0,
0,
0,
0,
0,
0,
0,
0,
0,
0,
0,
0,
0,
0,
0,
0,
0,
0,
0,
0,
0,
0,
0,
0,
0,
0,
0,
0,
#ENDOFDATA   :

File: P std.msa
#FORMAT      : EMSA/MAS Spectral Data File
#VERSION     : 1.0
#TITLE       : GaP std
#DATE        : 11-OCT-2018
#TIME        : 00:24
#OWNER       : Unknown
#NPOINTS     : 4096
#NCOLUMNS    : 1
#XUNITS      : eV
#YUNITS      : counts
#DATATYPE    : Y
#XPERCHAN    : 9.99856
#OFFSET      : 1.63032
#BEAMKV      : 20
#SIGNALTYPE  : EDS
#ELEVANGLE   : 35
#AZIMANGLE   : 0
#LIVETIME    : 1161.35
#REALTIME    : 1600.92
#PROBECUR    : 0.97451
#TDEADLYR    : 0
#TACTLYR     : 0.045
#TALWIND     : 0.003
#CHOFFSET    : 0.0
#XLABEL      : Energy (eV)
#YLABEL      : Counts
#EDSDET      : SDUTW
##SPECIMEN   : GaP std
##D2STDCMP   : GaP,(P:30.7594),(Ga:69.2406),5.0
##DET_HASH   : 97086dfe-e5c2-9c77-3984-1d0b14bbbf41
##CALIB_HASH : 1a36e884-c26d-3547-51b1-d0bb2efdf95a
##WORKING    : 17.0 mm
##SAMPLE     : <BulkSample id="1">\n<mOrientation id="2">\n<double>0.0</double>\n<double>0.0</double>\n<double>-1.0</double>\n</mOrientation>\n</BulkSample>
#SPECTRUM    :
197780,
168,
31229,
11996,
20443,
34315,
51276,
205685,
2241895,
23473,
20981,
24285,
26711,
31345,
414078,
143429,
29027,
23010,
23943,
24208,
25089,
25107,
27898,
25496,
24369,
23820,
23594,
23022,
22530,
23010,
21511,
20651,
20156,
19388,
18889,
18313,
18168,
17392,
16893,
16716,
15612,
15262,
15106,
14377,
13964,
13718,
14276,
12859,
12296,
11934,
11898,
11187,
11022,
11071,
10522,
10082,
9593,
9448,
9114,
8876,
8735,
8687,
8352,
8312,
8647,
40676,
278533,
43577,
7094,
6682,
6319,
6553,
8100,
36641,
20908,
5499,
4864,
4529,
4411,
4292,
4512,
4485,
3925,
3777,
3677,
3495,
3547,
3342,
3262,
3067,
3128,
2785,
2778,
2670,
2430,
2364,
2250,
2188,
2115,
1953,
1904,
1896,
1739,
1592,
1572,
1498,
1440,
1364,
1280,
1150,
1131,
1042,
983,
943,
877,
865,
781,
708,
660,
656,
600,
548,
514,
474,
460,
381,
359,
358,
316,
275,
254,
229,
217,
172,
141,
149,
106,
86,
85,
72,
66,
29,
17,
11,
5,
4,
2,
7,
1,
4,
2,
0,
1,
4,
2,
2,
1,
2,
2,
2,
2,
0,
2,
0,
2,
1,
2,
0,
0,
0,
1,
0,
0,
0,
0,
3,
0,
0,
1,
0,
0,
1,
0,
0,
0,
0,
0,
1,
0,
1,
0,
0,
0,
0,
0,
0,
0,
0,
0,
0,
0,
0,
1,
0,
1,
0,
0,
0,
0,
0,
0,
0,
0,
0,
0,
0,
0,
0,
0,
0,
0,
0,
0,
0,
0,
0,
0,
0,
0,
0,
0,
0,
0,
0,
0,
0,
0,
0,
0,
0,
0,
0,
0,
0,
0,
0,
0,
0,
0,
0,
0,
0,
0,
0,
0,
0,
0,
0,
0,
0,
0,
0,
0,
0,
0,
0,
0,
0,
0,
0,
0,
0,
0,
0,
0,
0,
0,
0,
0,
0,
0,
0,
0,
0,
0,
0,
0,
0,
0,
0,
0,
0,
0,
0,
#ENDOFDATA   :

File: Pb std.msa
#FORMAT      : EMSA/MAS Spectral Data File
#VERSION     : 1.0
#TITLE       : Trimmed[K227 std,1610 eV,1993 eV]
#DATE        : 15-OCT-2018
#TIME        : 01:53
#OWNER       : Unknown
#NPOINTS     : 4096
#NCOLUMNS    : 1
#XUNITS      : eV
#YUNITS      : counts
#DATATYPE    : Y
#XPERCHAN    : 9.99856
#OFFSET      : 1.63032
#BEAMKV      : 20
#SIGNALTYPE  : EDS
#ELEVANGLE   : 35
#AZIMANGLE   : 0
#LIVETIME    : 1152.74
#REALTIME    : 1574.32
#PROBECUR    : 0.98835
#TDEADLYR    : 0
#TACTLYR     : 0.045
#TALWIND     : 0.003
#CHOFFSET    : 0.0
#XLABEL      : Energy (eV)
#YLABEL      : Counts
#EDSDET      : SDUTW
##SPECIMEN   : Trimmed[K227 std,1610 eV,1993 eV]
##D2STDCMP   : K227,(O:16.39),(Si:9.35),(Pb:74.27),5.0
##DET_HASH   : 97086dfe-e5c2-9c77-3984-1d0b14bbbf41
##CALIB_HASH : 1a36e884-c26d-3547-51b1-d0bb2efdf95a
##WORKING    : 17.0 mm
##SAMPLE     : <BulkSample id="1">\n<mOrientation id="2">\n<double>0.0</double>\n<double>0.0</double>\n<double>-1.0</double>\n</mOrientation>\n</BulkSample>
#SPECTRUM    :
147455,
223,
34721,
16500,
80578,
38708,
31934,
39372,
44465,
50621,
55715,
60460,
57106.9,
55334.8,
53562.7,
56688,
98375,
1034049,
177456,
77579,
31346,
34778,
44095,
32792,
30393,
31309,
29977,
30746,
29090,
29826,
29310,
28681,
28312,
28155,
28890,
28029,
26521,
25992,
25961,
25790,
24397,
23883,
23413,
23050,
22808,
22667,
24141,
21252,
20335,
19935,
19784,
19377,
18804,
18419,
17958,
17487,
17286,
16703,
16303,
15931,
15449,
15077,
14758,
14377,
13887,
15437,
16438,
13037,
12854,
12275,
11980,
11970,
11452,
11389,
16595,
64772,
41792,
10911,
9652,
9357,
9029,
8987,
8540,
8243,
7760,
7676,
7784,
8462,
8209,
10709,
30724,
14494,
7258,
7028,
5479,
5159,
4843,
4671,
4497,
4278,
4145,
3918,
3884,
3720,
3616,
4978,
4632,
3308,
3443,
3009,
2562,
2489,
2391,
2348,
2114,
1874,
1872,
1790,
1667,
1531,
1488,
1353,
1249,
1173,
1065,
1094,
978,
914,
811,
719,
701,
608,
568,
507,
404,
366,
342,
244,
217,
172,
132,
92,
55,
14,
11,
7,
15,
12,
14,
14,
12,
8,
6,
5,
5,
3,
2,
6,
1,
5,
4,
4,
2,
0,
2,
3,
1,
3,
5,
2,
3,
2,
0,
0,
4,
0,
3,
0,
2,
2,
1,
1,
3,
0,
1,
1,
1,
1,
0,
1,
1,
0,
1,
1,
0,
0,
0,
0,
0,
0,
1,
2,
0,
0,
0,
0,
0,
1,
0,
0,
0,
0,
0,
0,
0,
0,
0,
0,
1,
0,
0,
0,
0,
0,
0,
0,
0,
0,
0,
0,
0,
0,
0,
0,
0,
0,
0,
0,
0,
0,
0,
0,
0,
0,
0,
0,
0,
0,
0,
0,
0,
0,
0,
0,
0,
0,
0,
0,
0,
0,
0,
0,
0,
0,
0,
0,
0,
0,
0,
0,
0,
0,
0,
0,
0,
0,
0,
0,
0,
0,
0,
0,
0,
0,
0,
0,
0,
0,
0,
0,
0,
0,
0,
0,
#ENDOFDATA   :

File: Si std.msa
#FORMAT      : EMSA/MAS Spectral Data File
#VERSION     : 1.0
#TITLE       : Si std
#DATE        : 11-OCT-2018
#TIME        : 11:48
#OWNER       : Unknown
#NPOINTS     : 4096
#NCOLUMNS    : 1
#XUNITS      : eV
#YUNITS      : counts
#DATATYPE    : Y
#XPERCHAN    : 9.99856
#OFFSET      : 1.63032
#BEAMKV      : 20
#SIGNALTYPE  : EDS
#ELEVANGLE   : 35
#AZIMANGLE   : 0
#LIVETIME    : 1149.58
#REALTIME    : 1771.99
#PROBECUR    : 0.97465
#TDEADLYR    : 0
#TACTLYR     : 0.045
#TALWIND     : 0.003
#CHOFFSET    : 0.0
#XLABEL      : Energy (eV)
#YLABEL      : Counts
#EDSDET      : SDUTW
##SPECIMEN   : Si std
##D2STDCMP   : Si,(Si:100.0),2.95
##DET_HASH   : 97086dfe-e5c2-9c77-3984-1d0b14bbbf41
##CALIB_HASH : 1a36e884-c26d-3547-51b1-d0bb2efdf95a
##WORKING    : 17.0 mm
##SAMPLE     : <BulkSample id="1">\n<mOrientation id="2">\n<double>0.0</double>\n<double>0.0</double>\n<double>-1.0</double>\n</mOrientation>\n</BulkSample>
#SPECTRUM    :
200689,
122,
11529,
7368,
14017,
22036,
31536,
39100,
44239,
47237,
53941,
73131,
1728926,
853137,
11698,
11000,
12046,
12961,
13691,
13995,
14316,
14317,
14344,
14387,
15561,
52124,
14560,
12498,
12322,
12029,
11632,
11250,
11103,
10553,
10413,
10080,
9633,
9352,
9140,
8830,
8231,
7996,
7879,
7668,
7388,
7109,
7341,
6614,
6405,
6174,
6137,
5632,
5663,
5450,
5452,
4919,
4775,
4673,
4621,
4429,
4323,
4224,
4024,
3911,
3731,
3606,
3548,
3457,
3286,
3214,
3159,
3012,
2863,
2764,
2739,
2641,
2594,
2411,
2250,
2260,
2147,
2106,
2071,
1946,
1809,
1714,
1701,
1574,
1521,
1496,
1518,
1342,
1288,
1205,
1160,
1145,
1068,
1015,
944,
904,
895,
823,
811,
759,
698,
648,
648,
626,
553,
544,
474,
437,
441,
430,
421,
392,
333,
326,
287,
257,
242,
242,
226,
200,
207,
166,
167,
150,
129,
108,
121,
110,
79,
74,
68,
44,
44,
28,
28,
29,
19,
16,
9,
4,
1,
2,
0,
0,
0,
1,
0,
0,
1,
0,
1,
0,
0,
0,
0,
0,
0,
0,
0,
0,
0,
0,
0,
0,
0,
0,
1,
0,
0,
0,
0,
0,
0,
0,
0,
0,
0,
0,
0,
0,
1,
0,
0,
0,
0,
0,
0,
0,
0,
0,
0,
0,
0,
0,
0,
0,
0,
0,
0,
0,
0,
0,
0,
0,
0,
0,
0,
0,
0,
0,
0,
0,
0,
0,
0,
0,
0,
0,
0,
0,
0,
0,
0,
0,
0,
0,
0,
0,
0,
0,
0,
0,
0,
0,
0,
0,
0,
0,
0,
0,
0,
0,
0,
0,
0,
0,
0,
0,
0,
0,
0,
0,
0,
0,
0,
0,
0,
0,
0,
0,
0,
0,
0,
0,
0,
0,
0,
0,
0,
0,
0,
0,
0,
0,
0,
0,
0,
0,
0,
0,
0,
0,
0,
0,
0,
0,
0,
0,
0,
0,
#ENDOFDATA   :

File: Sn std.msa
#FORMAT      : EMSA/MAS Spectral Data File
#VERSION     : 1.0
#TITLE       : Sn std
#DATE        : 15-OCT-2018
#TIME        : 11:47
#OWNER       : Unknown
#NPOINTS     : 4096
#NCOLUMNS    : 1
#XUNITS      : eV
#YUNITS      : counts
#DATATYPE    : Y
#XPERCHAN    : 9.99856
#OFFSET      : 1.63032
#BEAMKV      : 20
#SIGNALTYPE  : EDS
#ELEVANGLE   : 35
#AZIMANGLE   : 0
#LIVETIME    : 1166.83
#REALTIME    : 1628.69
#PROBECUR    : 0.98878
#TDEADLYR    : 0
#TACTLYR     : 0.045
#TALWIND     : 0.003
#CHOFFSET    : 0.0
#XLABEL      : Energy (eV)
#YLABEL      : Counts
#EDSDET      : SDUTW
##SPECIMEN   : Sn std
##D2STDCMP   : Sn,(Sn:100.0),5.0
##DET_HASH   : 97086dfe-e5c2-9c77-3984-1d0b14bbbf41
##CALIB_HASH : 1a36e884-c26d-3547-51b1-d0bb2efdf95a
##WORKING    : 17.0 mm
##SAMPLE     : <BulkSample id="1">\n<mOrientation id="2">\n<double>0.0</double>\n<double>0.0</double>\n<double>-1.0</double>\n</mOrientation>\n</BulkSample>
#SPECTRUM    :
150904,
456,
30401,
87621,
20369,
27023,
20407,
24772,
29866,
35584,
40358,
46695,
62101,
50674,
54812,
51783,
52273,
52731,
52598,
52529,
51431,
54900,
96787,
60429,
277817,
836034,
590087,
233826,
224257,
51081,
52618,
45844,
28358,
23425,
23727,
23681,
23649,
23495,
23532,
23825,
22700,
22326,
22422,
21832,
21548,
21393,
22117,
20325,
20011,
20944,
19991,
20869,
18959,
18709,
17840,
17154,
16733,
16366,
16019,
15459,
15079,
14684,
14351,
14102,
13860,
13310,
13030,
12818,
12295,
11952,
11803,
11677,
11079,
10684,
10597,
10669,
10156,
9722,
9412,
9130,
8811,
8597,
8300,
8109,
7702,
7608,
7372,
7090,
6942,
6641,
6623,
6235,
5789,
5716,
5339,
5229,
4874,
4902,
4504,
4310,
4337,
4030,
3814,
3737,
3416,
3454,
3269,
3051,
2865,
2724,
2618,
2553,
2335,
2232,
2142,
1908,
1951,
1747,
1647,
1524,
1396,
1413,
1247,
1231,
1042,
989,
861,
836,
776,
695,
642,
597,
548,
471,
425,
353,
321,
286,
221,
216,
141,
85,
55,
35,
13,
10,
10,
1,
6,
10,
4,
8,
4,
3,
5,
3,
5,
2,
2,
3,
1,
5,
2,
1,
5,
4,
2,
0,
1,
3,
1,
1,
2,
2,
1,
0,
1,
1,
0,
0,
1,
1,
0,
0,
1,
0,
0,
0,
1,
0,
0,
0,
0,
0,
0,
0,
0,
1,
1,
1,
0,
0,
0,
1,
1,
0,
0,
0,
0,
0,
0,
0,
0,
0,
0,
0,
0,
0,
1,
0,
0,
1,
0,
0,
0,
0,
0,
0,
0,
0,
0,
0,
0,
0,
0,
0,
0,
0,
0,
0,
0,
0,
0,
0,
0,
0,
0,
0,
0,
0,
0,
0,
0,
1,
0,
0,
0,
0,
0,
0,
0,
0,
0,
0,
0,
0,
0,
0,
0,
0,
0,
0,
0,
0,
0,
0,
0,
0,
0,
0,
0,
0,
0,
0,
0,
0,
0,
0,
0,
0,
0,
0,
0,
0,
#ENDOFDATA   :