Folder: NeXLNotebooks/NeXLSpectrum/Pyrite fragments

File: CuS_ChMxd_1_15kV10nA130kHz_132kHz_100s.msa
#FORMAT      : EMSA/MAS Spectral Data File
#VERSION     : 1.0
#TITLE       : Bruker Nano spectrum Acquisition
#DATE        : 23-AUG-2019
#TIME        : 09:11
#OWNER       : Bruker Nano
#NPOINTS     : 4096
#NCOLUMNS    : 1
#XUNITS      : eV
#YUNITS      : counts
#DATATYPE    : Y
#XPERCHAN    : 5.00257
#OFFSET      : -482.8305
#BEAMKV      : 15
#SIGNALTYPE  : EDS
#ELEVANGLE   : 40
#AZIMANGLE   : 45
#LIVETIME    : 100
#REALTIME    : 132.446
#PROBECUR    : 10
#TAUWIND     : 0
#TDEADLYR    : 0
#TACTLYR     : 0.045
#TALWIND     : 0.004
#CHOFFSET    : 0.0
#XLABEL      : Energy (eV)
#YLABEL      : Counts
#EDSDET      : SDUTW
##D2STDCMP   : CuS,(S:33.5369),(Cu:66.4631),4.6
##DET_HASH   : c6370f9e-cc72-7559-f57e-203d75c8942b
##CALIB_HASH : fcf71094-1a10-2882-685e-00197fff5925
##SAMPLE     : <BulkSample id="1">\n<mOrientation id="2">\n<double>0.0</double>\n<double>0.0</double>\n<double>-1.0</double>\n</mOrientation>\n</BulkSample>
#SPECTRUM    :
0,
0,
0,
0,
4,
47,
4327,
275647,
185,
1478,
1419,
6123,
1150,
1538,
3435,
3375,
4131,
5618,
15981,
22254,
217963,
42299,
4450,
3408,
3466,
3607,
3905,
4048,
4219,
4112,
4039,
4420,
4755,
4426,
4229,
4354,
4410,
4446,
5167,
48671,
162540,
23560,
15170,
6798,
3247,
3078,
3073,
2976,
2869,
3325,
3368,
2843,
2957,
2840,
2652,
2595,
2563,
2460,
2452,
2486,
2436,
2336,
2296,
2197,
2300,
2122,
2103,
1929,
2060,
1974,
2045,
1949,
1903,
1837,
1756,
1799,
1729,
1741,
1632,
1601,
1541,
1562,
1550,
1416,
1510,
1433,
1417,
1397,
1335,
1280,
1245,
1329,
1237,
1232,
1179,
1162,
1242,
1189,
1124,
1078,
1124,
1114,
1061,
1038,
949,
973,
1011,
988,
972,
984,
897,
897,
863,
840,
838,
865,
850,
808,
838,
1054,
4613,
17616,
22881,
9055,
1620,
727,
740,
666,
646,
649,
616,
695,
902,
2171,
3501,
2339,
912,
552,
480,
466,
448,
478,
499,
455,
452,
421,
395,
419,
410,
384,
408,
377,
373,
374,
361,
351,
312,
320,
317,
318,
279,
283,
292,
295,
264,
260,
261,
283,
247,
265,
226,
222,
224,
221,
209,
190,
194,
232,
173,
194,
175,
173,
192,
164,
143,
143,
125,
136,
159,
121,
107,
117,
114,
107,
97,
101,
97,
105,
84,
72,
82,
69,
65,
54,
51,
62,
57,
40,
35,
42,
29,
34,
25,
25,
31,
24,
14,
22,
10,
7,
10,
0,
0,
0,
1,
1,
0,
0,
0,
0,
0,
0,
0,
0,
3,
0,
0,
0,
0,
0,
1,
0,
1,
0,
0,
2,
0,
0,
1,
0,
0,
0,
0,
0,
2,
1,
0,
0,
0,
0,
1,
0,
0,
0,
0,
0,
0,
0,
0,
1,
0,
0,
0,
0,
0,
0,
0,
0,
0,
0,
0,
0,
0,
0,
0,
0,
0,
0,
0,
0,
0,
0,
0,
0,
#ENDOFDATA   :

File: CuS_ChMxd_2_15kV10nA130kHz_132kHz_100s.msa
#FORMAT      : EMSA/MAS Spectral Data File
#VERSION     : 1.0
#TITLE       : Bruker Nano spectrum Acquisition
#DATE        : 23-AUG-2019
#TIME        : 09:14
#OWNER       : Bruker Nano
#NPOINTS     : 4096
#NCOLUMNS    : 1
#XUNITS      : eV
#YUNITS      : counts
#DATATYPE    : Y
#XPERCHAN    : 5.00257
#OFFSET      : -482.8305
#BEAMKV      : 15
#SIGNALTYPE  : EDS
#ELEVANGLE   : 40
#AZIMANGLE   : 45
#LIVETIME    : 100
#REALTIME    : 132.476
#PROBECUR    : 10
#TAUWIND     : 0
#TDEADLYR    : 0
#TACTLYR     : 0.045
#TALWIND     : 0.004
#CHOFFSET    : 0.0
#XLABEL      : Energy (eV)
#YLABEL      : Counts
#EDSDET      : SDUTW
##D2STDCMP   : CuS,(S:33.5369),(Cu:66.4631),4.6
##DET_HASH   : c6370f9e-cc72-7559-f57e-203d75c8942b
##CALIB_HASH : fcf71094-1a10-2882-685e-00197fff5925
##SAMPLE     : <BulkSample id="1">\n<mOrientation id="2">\n<double>0.0</double>\n<double>0.0</double>\n<double>-1.0</double>\n</mOrientation>\n</BulkSample>
#SPECTRUM    :
0,
0,
0,
0,
17,
54,
4286,
275082,
196,
1532,
1432,
5974,
1115,
1504,
3394,
3310,
4043,
5546,
15865,
22187,
221298,
42613,
4498,
3305,
3384,
3618,
3776,
3983,
4096,
4060,
4110,
4316,
4770,
4442,
4223,
4353,
4475,
4307,
5160,
48341,
162721,
23365,
15024,
6673,
3174,
3008,
2997,
2932,
3011,
3277,
3192,
2811,
2837,
2767,
2673,
2619,
2512,
2506,
2524,
2440,
2412,
2328,
2285,
2236,
2183,
2112,
2025,
2029,
2056,
1975,
2023,
1979,
1890,
1776,
1771,
1734,
1686,
1687,
1644,
1601,
1594,
1514,
1506,
1452,
1520,
1427,
1451,
1399,
1351,
1301,
1338,
1215,
1243,
1211,
1228,
1172,
1142,
1189,
1103,
1132,
1096,
1061,
1039,
1007,
968,
996,
947,
967,
968,
889,
845,
882,
863,
842,
901,
777,
804,
843,
829,
1061,
4695,
17911,
22805,
9008,
1656,
788,
685,
661,
662,
627,
627,
714,
939,
2199,
3474,
2267,
880,
534,
480,
458,
437,
427,
454,
440,
449,
417,
391,
406,
373,
414,
402,
393,
358,
364,
347,
357,
334,
337,
310,
341,
324,
305,
303,
263,
300,
262,
232,
264,
260,
220,
254,
236,
242,
212,
196,
193,
204,
202,
175,
186,
192,
183,
168,
160,
151,
118,
131,
157,
146,
113,
118,
151,
108,
111,
110,
105,
95,
86,
95,
77,
83,
71,
69,
65,
64,
46,
47,
43,
53,
40,
42,
26,
31,
40,
27,
10,
16,
18,
11,
4,
7,
0,
0,
3,
0,
0,
0,
0,
0,
1,
0,
2,
0,
0,
0,
0,
0,
0,
0,
0,
0,
0,
0,
0,
0,
0,
0,
0,
0,
0,
0,
0,
0,
0,
0,
0,
0,
0,
0,
0,
0,
0,
0,
0,
0,
0,
0,
0,
0,
0,
0,
0,
0,
0,
0,
0,
2,
0,
0,
0,
0,
0,
0,
0,
0,
0,
0,
0,
0,
0,
1,
0,
0,
0,
#ENDOFDATA   :

File: CuS_ChMxd_3_15kV10nA130kHz_132kHz_100s.msa
#FORMAT      : EMSA/MAS Spectral Data File
#VERSION     : 1.0
#TITLE       : Bruker Nano spectrum Acquisition
#DATE        : 23-AUG-2019
#TIME        : 09:17
#OWNER       : Bruker Nano
#NPOINTS     : 4096
#NCOLUMNS    : 1
#XUNITS      : eV
#YUNITS      : counts
#DATATYPE    : Y
#XPERCHAN    : 5.00257
#OFFSET      : -482.8305
#BEAMKV      : 15
#SIGNALTYPE  : EDS
#ELEVANGLE   : 40
#AZIMANGLE   : 45
#LIVETIME    : 100
#REALTIME    : 132.46
#PROBECUR    : 10
#TAUWIND     : 0
#TDEADLYR    : 0
#TACTLYR     : 0.045
#TALWIND     : 0.004
#CHOFFSET    : 0.0
#XLABEL      : Energy (eV)
#YLABEL      : Counts
#EDSDET      : SDUTW
##D2STDCMP   : CuS,(S:33.5369),(Cu:66.4631),4.6
##DET_HASH   : c6370f9e-cc72-7559-f57e-203d75c8942b
##CALIB_HASH : fcf71094-1a10-2882-685e-00197fff5925
##SAMPLE     : <BulkSample id="1">\n<mOrientation id="2">\n<double>0.0</double>\n<double>0.0</double>\n<double>-1.0</double>\n</mOrientation>\n</BulkSample>
#SPECTRUM    :
0,
0,
0,
0,
14,
54,
4240,
275759,
212,
1514,
1400,
5912,
1133,
1562,
3315,
3143,
4040,
5417,
16029,
22223,
220319,
42858,
4525,
3276,
3444,
3532,
3902,
4079,
4192,
4071,
3972,
4239,
4696,
4349,
4272,
4315,
4507,
4427,
5052,
48380,
162213,
23319,
14814,
6729,
3221,
3010,
3051,
2937,
2953,
3118,
3257,
2860,
2765,
2690,
2588,
2651,
2521,
2566,
2499,
2449,
2377,
2299,
2223,
2227,
2213,
2162,
2081,
2008,
2020,
1947,
1947,
1932,
1852,
1828,
1755,
1705,
1718,
1690,
1638,
1657,
1563,
1592,
1526,
1483,
1446,
1436,
1388,
1403,
1329,
1301,
1284,
1317,
1217,
1254,
1253,
1221,
1130,
1190,
1146,
1203,
1047,
1093,
1007,
1040,
1021,
967,
926,
956,
914,
921,
905,
903,
877,
827,
869,
882,
782,
878,
881,
1073,
4689,
18033,
23069,
9107,
1608,
734,
676,
673,
678,
674,
633,
728,
904,
2152,
3381,
2277,
902,
554,
509,
483,
430,
469,
446,
410,
493,
406,
447,
404,
401,
419,
396,
356,
344,
353,
332,
346,
337,
323,
326,
314,
309,
284,
297,
261,
294,
285,
293,
260,
230,
266,
221,
236,
227,
222,
197,
212,
182,
216,
185,
179,
166,
183,
155,
144,
152,
131,
138,
141,
127,
118,
87,
111,
106,
111,
79,
79,
103,
74,
81,
86,
76,
75,
78,
60,
76,
57,
37,
56,
48,
41,
35,
26,
24,
31,
19,
18,
19,
9,
10,
9,
9,
7,
0,
0,
0,
0,
0,
0,
0,
0,
3,
0,
0,
0,
3,
0,
0,
2,
0,
0,
0,
0,
0,
0,
0,
0,
0,
0,
0,
0,
0,
0,
0,
0,
0,
0,
0,
0,
0,
0,
0,
0,
0,
0,
0,
2,
0,
0,
0,
1,
0,
0,
0,
0,
0,
0,
0,
0,
3,
0,
0,
0,
0,
0,
1,
0,
0,
0,
0,
0,
0,
0,
1,
0,
#ENDOFDATA   :

File: Fe_StdC_1_15kV10nA130kHz_99kHz_100s.msa
#FORMAT      : EMSA/MAS Spectral Data File
#VERSION     : 1.0
#TITLE       : Bruker Nano spectrum Acquisition
#DATE        : 23-AUG-2019
#TIME        : 09:00
#OWNER       : Bruker Nano
#NPOINTS     : 4096
#NCOLUMNS    : 1
#XUNITS      : eV
#YUNITS      : counts
#DATATYPE    : Y
#XPERCHAN    : 5.00257
#OFFSET      : -482.8305
#BEAMKV      : 15
#SIGNALTYPE  : EDS
#ELEVANGLE   : 40
#AZIMANGLE   : 45
#LIVETIME    : 100
#REALTIME    : 122.798
#PROBECUR    : 10
#TAUWIND     : 0
#TDEADLYR    : 0
#TACTLYR     : 0.045
#TALWIND     : 0.004
#CHOFFSET    : 0.0
#XLABEL      : Energy (eV)
#YLABEL      : Counts
#EDSDET      : SDUTW
##D2STDCMP   : Fe,(Fe:100.0),7.87
##DET_HASH   : c6370f9e-cc72-7559-f57e-203d75c8942b
##CALIB_HASH : fcf71094-1a10-2882-685e-00197fff5925
##SAMPLE     : <BulkSample id="1">\n<mOrientation id="2">\n<double>0.0</double>\n<double>0.0</double>\n<double>-1.0</double>\n</mOrientation>\n</BulkSample>
#SPECTRUM    :
0,
0,
0,
0,
3,
29,
2581,
164841,
127,
785,
1988,
7821,
1782,
2607,
5968,
13840,
37697,
110150,
5811,
2337,
2217,
2455,
2840,
3102,
3473,
3814,
3774,
3917,
4117,
4111,
4257,
4502,
4738,
4509,
4308,
4379,
4378,
4361,
4287,
4259,
4270,
4326,
4091,
4111,
4073,
3948,
3758,
3805,
3723,
3480,
3540,
3434,
3431,
3333,
3314,
3237,
3185,
3045,
2966,
2932,
2973,
2746,
2711,
2664,
2602,
2622,
2457,
2448,
2351,
2296,
2321,
2263,
2097,
2099,
2158,
2013,
2066,
1980,
1929,
1789,
1825,
1772,
1753,
1702,
1680,
1764,
1658,
1574,
1599,
1557,
1515,
1501,
1520,
1477,
1423,
1627,
3171,
25285,
82554,
60106,
10756,
1725,
1317,
1303,
1257,
1486,
3024,
9259,
10954,
4153,
1229,
921,
874,
849,
901,
825,
816,
816,
805,
773,
798,
759,
751,
727,
694,
680,
695,
647,
672,
666,
630,
683,
625,
575,
572,
573,
556,
539,
556,
567,
576,
511,
514,
477,
490,
472,
507,
460,
497,
422,
470,
422,
434,
409,
413,
387,
363,
405,
378,
365,
339,
324,
377,
327,
341,
298,
305,
299,
301,
285,
289,
266,
227,
232,
258,
232,
243,
183,
178,
173,
199,
193,
193,
176,
172,
151,
176,
144,
142,
126,
153,
135,
138,
105,
128,
96,
95,
100,
89,
74,
88,
81,
79,
70,
69,
61,
58,
45,
45,
42,
39,
33,
32,
27,
27,
27,
40,
14,
14,
13,
4,
1,
8,
0,
1,
0,
0,
0,
0,
0,
0,
0,
0,
0,
0,
0,
0,
0,
0,
0,
0,
0,
0,
0,
0,
0,
0,
1,
0,
0,
0,
0,
0,
0,
0,
0,
0,
0,
0,
0,
0,
1,
0,
0,
0,
0,
0,
1,
0,
0,
0,
0,
0,
0,
0,
0,
0,
0,
0,
0,
0,
1,
0,
0,
1,
0,
0,
0,
0,
0,
1,
0,
1,
0,
#ENDOFDATA   :

File: Fe_StdC_2_15kV10nA130kHz_99kHz_100s.msa
#FORMAT      : EMSA/MAS Spectral Data File
#VERSION     : 1.0
#TITLE       : Bruker Nano spectrum Acquisition
#DATE        : 23-AUG-2019
#TIME        : 09:03
#OWNER       : Bruker Nano
#NPOINTS     : 4096
#NCOLUMNS    : 1
#XUNITS      : eV
#YUNITS      : counts
#DATATYPE    : Y
#XPERCHAN    : 5.00257
#OFFSET      : -482.8305
#BEAMKV      : 15
#SIGNALTYPE  : EDS
#ELEVANGLE   : 40
#AZIMANGLE   : 45
#LIVETIME    : 100
#REALTIME    : 122.701
#PROBECUR    : 10
#TAUWIND     : 0
#TDEADLYR    : 0
#TACTLYR     : 0.045
#TALWIND     : 0.004
#CHOFFSET    : 0.0
#XLABEL      : Energy (eV)
#YLABEL      : Counts
#EDSDET      : SDUTW
##D2STDCMP   : Fe,(Fe:100.0),7.87
##DET_HASH   : c6370f9e-cc72-7559-f57e-203d75c8942b
##CALIB_HASH : fcf71094-1a10-2882-685e-00197fff5925
##SAMPLE     : <BulkSample id="1">\n<mOrientation id="2">\n<double>0.0</double>\n<double>0.0</double>\n<double>-1.0</double>\n</mOrientation>\n</BulkSample>
#SPECTRUM    :
0,
0,
0,
0,
9,
40,
2737,
164797,
97,
863,
1988,
7978,
1794,
2566,
5603,
13749,
37578,
110943,
5615,
2277,
2216,
2543,
2817,
3071,
3302,
3789,
3894,
3980,
4211,
4107,
4151,
4537,
4840,
4445,
4315,
4410,
4439,
4262,
4362,
4370,
4275,
4306,
4177,
4070,
3991,
3999,
3828,
3747,
3652,
3576,
3544,
3506,
3380,
3361,
3216,
3191,
3192,
3134,
3019,
2936,
2901,
2784,
2714,
2608,
2606,
2483,
2424,
2446,
2401,
2273,
2260,
2325,
2193,
2101,
2124,
2055,
1979,
1859,
1874,
1831,
1805,
1717,
1797,
1731,
1741,
1737,
1680,
1547,
1657,
1505,
1529,
1482,
1521,
1511,
1486,
1636,
3240,
24968,
81945,
59770,
10476,
1750,
1367,
1255,
1334,
1424,
3048,
9242,
10944,
4199,
1180,
895,
821,
895,
878,
827,
785,
779,
790,
775,
744,
762,
733,
674,
709,
670,
674,
683,
673,
631,
635,
659,
648,
611,
634,
568,
544,
532,
556,
555,
509,
514,
517,
485,
488,
486,
466,
480,
435,
437,
444,
464,
412,
386,
391,
383,
372,
402,
394,
375,
338,
355,
306,
304,
301,
305,
299,
311,
256,
253,
248,
262,
258,
248,
211,
265,
210,
235,
227,
215,
205,
205,
191,
165,
179,
161,
165,
124,
133,
114,
124,
116,
114,
114,
113,
105,
99,
88,
77,
86,
75,
82,
75,
64,
71,
65,
52,
49,
43,
40,
39,
37,
33,
22,
27,
19,
17,
11,
17,
4,
4,
1,
0,
3,
0,
1,
0,
0,
0,
1,
0,
3,
0,
0,
0,
0,
0,
0,
1,
0,
0,
0,
0,
0,
0,
0,
0,
0,
0,
0,
0,
0,
0,
2,
1,
0,
1,
2,
0,
0,
0,
0,
0,
0,
1,
0,
0,
1,
0,
0,
0,
0,
0,
0,
0,
0,
0,
0,
0,
0,
1,
0,
0,
0,
0,
0,
2,
1,
0,
0,
0,
0,
0,
0,
#ENDOFDATA   :

File: Fe_StdC_3_15kV10nA130kHz_99kHz_100s.msa
#FORMAT      : EMSA/MAS Spectral Data File
#VERSION     : 1.0
#TITLE       : Bruker Nano spectrum Acquisition
#DATE        : 23-AUG-2019
#TIME        : 09:06
#OWNER       : Bruker Nano
#NPOINTS     : 4096
#NCOLUMNS    : 1
#XUNITS      : eV
#YUNITS      : counts
#DATATYPE    : Y
#XPERCHAN    : 5.00257
#OFFSET      : -482.8305
#BEAMKV      : 15
#SIGNALTYPE  : EDS
#ELEVANGLE   : 40
#AZIMANGLE   : 45
#LIVETIME    : 100
#REALTIME    : 122.816
#PROBECUR    : 10
#TAUWIND     : 0
#TDEADLYR    : 0
#TACTLYR     : 0.045
#TALWIND     : 0.004
#CHOFFSET    : 0.0
#XLABEL      : Energy (eV)
#YLABEL      : Counts
#EDSDET      : SDUTW
##D2STDCMP   : Fe,(Fe:100.0),7.87
##DET_HASH   : c6370f9e-cc72-7559-f57e-203d75c8942b
##CALIB_HASH : fcf71094-1a10-2882-685e-00197fff5925
##SAMPLE     : <BulkSample id="1">\n<mOrientation id="2">\n<double>0.0</double>\n<double>0.0</double>\n<double>-1.0</double>\n</mOrientation>\n</BulkSample>
#SPECTRUM    :
0,
0,
0,
0,
8,
40,
2608,
164950,
138,
844,
1964,
7791,
1819,
2676,
5825,
13803,
37427,
111078,
5658,
2343,
2149,
2536,
2771,
3138,
3388,
3698,
3871,
3982,
4145,
4179,
4186,
4434,
4864,
4444,
4373,
4390,
4387,
4352,
4335,
4319,
4256,
4122,
4167,
4019,
4032,
3969,
3866,
3624,
3731,
3690,
3548,
3376,
3439,
3267,
3235,
3132,
3076,
3090,
3026,
2905,
2936,
2719,
2628,
2705,
2613,
2539,
2442,
2507,
2361,
2347,
2276,
2327,
2203,
2064,
2100,
2076,
1986,
1968,
1912,
1890,
1835,
1886,
1807,
1739,
1712,
1659,
1714,
1655,
1530,
1543,
1566,
1610,
1544,
1415,
1420,
1624,
3225,
25478,
82747,
60217,
10493,
1726,
1334,
1286,
1259,
1438,
3066,
9242,
11096,
4147,
1219,
910,
836,
919,
886,
869,
814,
793,
789,
775,
788,
761,
726,
719,
736,
699,
709,
698,
658,
658,
642,
606,
562,
604,
619,
606,
585,
556,
589,
552,
506,
554,
506,
463,
495,
483,
471,
477,
481,
424,
436,
425,
405,
395,
377,
380,
433,
359,
354,
365,
367,
319,
329,
337,
313,
306,
303,
319,
257,
304,
270,
250,
257,
256,
231,
241,
231,
229,
199,
192,
205,
171,
162,
163,
178,
178,
151,
151,
149,
145,
127,
117,
127,
102,
124,
102,
84,
110,
84,
92,
75,
72,
80,
74,
70,
69,
54,
60,
65,
45,
57,
42,
28,
40,
31,
24,
12,
13,
13,
11,
6,
1,
0,
0,
0,
0,
0,
0,
0,
0,
0,
0,
0,
0,
0,
0,
0,
0,
1,
0,
0,
0,
0,
0,
0,
0,
0,
0,
0,
0,
0,
1,
0,
0,
0,
0,
0,
0,
0,
0,
0,
0,
0,
0,
1,
0,
0,
0,
0,
0,
0,
0,
0,
0,
0,
0,
0,
0,
0,
0,
0,
0,
0,
0,
1,
0,
0,
0,
0,
0,
0,
0,
0,
0,
#ENDOFDATA   :

File: FeS_StdC_1_15kV10nA130kHz_153kHz_100s.msa
#FORMAT      : EMSA/MAS Spectral Data File
#VERSION     : 1.0
#TITLE       : Bruker Nano spectrum Acquisition
#DATE        : 23-AUG-2019
#TIME        : 10:07
#OWNER       : Bruker Nano
#NPOINTS     : 4096
#NCOLUMNS    : 1
#XUNITS      : eV
#YUNITS      : counts
#DATATYPE    : Y
#XPERCHAN    : 5.00257
#OFFSET      : -482.8305
#BEAMKV      : 15
#SIGNALTYPE  : EDS
#ELEVANGLE   : 40
#AZIMANGLE   : 45
#LIVETIME    : 100
#REALTIME    : 126.044
#PROBECUR    : 10
#TAUWIND     : 0
#TDEADLYR    : 0
#TACTLYR     : 0.045
#TALWIND     : 0.004
#CHOFFSET    : 0.0
#XLABEL      : Energy (eV)
#YLABEL      : Counts
#EDSDET      : SDUTW
##D2STDCMP   : FeS,(S:36.4748),(Fe:63.5252),4.74
##DET_HASH   : c6370f9e-cc72-7559-f57e-203d75c8942b
##CALIB_HASH : fcf71094-1a10-2882-685e-00197fff5925
##SAMPLE     : <BulkSample id="1">\n<mOrientation id="2">\n<double>0.0</double>\n<double>0.0</double>\n<double>-1.0</double>\n</mOrientation>\n</BulkSample>
#SPECTRUM    :
0,
0,
0,
0,
13,
39,
3153,
206261,
144,
1627,
1363,
6758,
1026,
1522,
4203,
6912,
16224,
49959,
4848,
2794,
2762,
3079,
3383,
3705,
4063,
4242,
4300,
4464,
4633,
4550,
4416,
4578,
5018,
4657,
4504,
4654,
4702,
4631,
5562,
56130,
187753,
26255,
17330,
7226,
3169,
2923,
2879,
2797,
2782,
2772,
2715,
2686,
2710,
2667,
2558,
2489,
2445,
2384,
2406,
2303,
2338,
2252,
2159,
2034,
2108,
2052,
1964,
1883,
1864,
1812,
1777,
1805,
1727,
1565,
1604,
1581,
1591,
1574,
1577,
1486,
1485,
1444,
1417,
1363,
1389,
1382,
1385,
1303,
1248,
1182,
1173,
1164,
1172,
1189,
1198,
1232,
2150,
15179,
48413,
35646,
6452,
1327,
997,
973,
1059,
1134,
2028,
5746,
6743,
2600,
946,
791,
743,
716,
729,
741,
650,
702,
704,
634,
641,
603,
568,
618,
610,
617,
598,
553,
557,
539,
513,
507,
502,
517,
521,
500,
453,
480,
427,
414,
455,
420,
434,
402,
410,
394,
417,
393,
368,
371,
363,
341,
340,
307,
336,
302,
284,
294,
262,
288,
308,
272,
268,
266,
274,
291,
237,
237,
238,
200,
200,
232,
223,
195,
205,
182,
183,
180,
178,
161,
154,
187,
134,
151,
129,
144,
126,
129,
83,
113,
104,
95,
92,
96,
81,
87,
91,
86,
75,
53,
57,
65,
66,
59,
49,
58,
56,
41,
41,
30,
29,
25,
31,
24,
19,
13,
12,
13,
6,
6,
4,
4,
0,
1,
0,
0,
0,
0,
0,
0,
3,
0,
0,
0,
0,
0,
0,
0,
0,
0,
1,
0,
0,
2,
0,
0,
0,
0,
0,
0,
0,
1,
1,
0,
0,
2,
0,
0,
0,
0,
0,
2,
0,
0,
1,
0,
0,
0,
0,
0,
1,
0,
0,
0,
0,
0,
0,
0,
0,
0,
0,
0,
0,
0,
0,
0,
0,
0,
0,
0,
0,
0,
0,
0,
#ENDOFDATA   :

File: FeS_StdC_2_15kV10nA130kHz_153kHz_100s.msa
#FORMAT      : EMSA/MAS Spectral Data File
#VERSION     : 1.0
#TITLE       : Bruker Nano spectrum Acquisition
#DATE        : 23-AUG-2019
#TIME        : 10:10
#OWNER       : Bruker Nano
#NPOINTS     : 4096
#NCOLUMNS    : 1
#XUNITS      : eV
#YUNITS      : counts
#DATATYPE    : Y
#XPERCHAN    : 5.00257
#OFFSET      : -482.8305
#BEAMKV      : 15
#SIGNALTYPE  : EDS
#ELEVANGLE   : 40
#AZIMANGLE   : 45
#LIVETIME    : 100
#REALTIME    : 125.961
#PROBECUR    : 10
#TAUWIND     : 0
#TDEADLYR    : 0
#TACTLYR     : 0.045
#TALWIND     : 0.004
#CHOFFSET    : 0.0
#XLABEL      : Energy (eV)
#YLABEL      : Counts
#EDSDET      : SDUTW
##D2STDCMP   : FeS,(S:36.4748),(Fe:63.5252),4.74
##DET_HASH   : c6370f9e-cc72-7559-f57e-203d75c8942b
##CALIB_HASH : fcf71094-1a10-2882-685e-00197fff5925
##SAMPLE     : <BulkSample id="1">\n<mOrientation id="2">\n<double>0.0</double>\n<double>0.0</double>\n<double>-1.0</double>\n</mOrientation>\n</BulkSample>
#SPECTRUM    :
0,
0,
0,
0,
15,
49,
3251,
206222,
135,
1644,
1354,
6629,
981,
1421,
4315,
7137,
16043,
50133,
4850,
2783,
2713,
3042,
3415,
3658,
3972,
4275,
4282,
4468,
4582,
4533,
4423,
4627,
5050,
4547,
4449,
4488,
4680,
4547,
5321,
55622,
186868,
26242,
16921,
7193,
3093,
2953,
2828,
2935,
2850,
2807,
2721,
2698,
2610,
2609,
2514,
2502,
2459,
2417,
2365,
2407,
2254,
2223,
2095,
2111,
2167,
2069,
1968,
2008,
1898,
1833,
1829,
1896,
1753,
1570,
1533,
1581,
1582,
1597,
1554,
1511,
1466,
1516,
1416,
1414,
1298,
1341,
1287,
1313,
1317,
1266,
1184,
1233,
1211,
1196,
1177,
1280,
2130,
15338,
48632,
35838,
6432,
1222,
1028,
977,
1047,
1146,
2025,
5792,
6626,
2603,
951,
745,
770,
730,
723,
718,
683,
650,
680,
625,
648,
636,
605,
571,
617,
622,
588,
572,
589,
544,
508,
536,
513,
493,
463,
443,
459,
453,
447,
459,
451,
449,
424,
393,
415,
391,
398,
391,
383,
358,
383,
322,
334,
320,
358,
340,
313,
321,
309,
303,
284,
273,
297,
278,
226,
250,
262,
238,
249,
225,
206,
231,
200,
192,
226,
199,
186,
162,
166,
171,
161,
160,
150,
141,
133,
128,
125,
133,
122,
113,
94,
92,
99,
101,
99,
80,
87,
88,
71,
64,
64,
49,
55,
52,
42,
48,
53,
34,
35,
32,
35,
32,
26,
26,
21,
28,
17,
17,
11,
2,
5,
0,
2,
1,
0,
0,
0,
1,
0,
0,
0,
0,
0,
0,
0,
1,
0,
2,
0,
0,
0,
0,
0,
0,
0,
0,
0,
0,
0,
0,
1,
0,
0,
0,
0,
0,
0,
0,
0,
0,
2,
0,
2,
0,
0,
0,
0,
0,
0,
0,
3,
0,
0,
0,
0,
1,
0,
0,
0,
0,
0,
1,
0,
0,
0,
0,
0,
0,
0,
0,
0,
0,
0,
0,
#ENDOFDATA   :

File: FeS_StdC_3_15kV10nA130kHz_153kHz_100s.msa
#FORMAT      : EMSA/MAS Spectral Data File
#VERSION     : 1.0
#TITLE       : Bruker Nano spectrum Acquisition
#DATE        : 23-AUG-2019
#TIME        : 10:13
#OWNER       : Bruker Nano
#NPOINTS     : 4096
#NCOLUMNS    : 1
#XUNITS      : eV
#YUNITS      : counts
#DATATYPE    : Y
#XPERCHAN    : 5.00257
#OFFSET      : -482.8305
#BEAMKV      : 15
#SIGNALTYPE  : EDS
#ELEVANGLE   : 40
#AZIMANGLE   : 45
#LIVETIME    : 100
#REALTIME    : 125.997
#PROBECUR    : 10
#TAUWIND     : 0
#TDEADLYR    : 0
#TACTLYR     : 0.045
#TALWIND     : 0.004
#CHOFFSET    : 0.0
#XLABEL      : Energy (eV)
#YLABEL      : Counts
#EDSDET      : SDUTW
##D2STDCMP   : FeS,(S:36.4748),(Fe:63.5252),4.74
##DET_HASH   : c6370f9e-cc72-7559-f57e-203d75c8942b
##CALIB_HASH : fcf71094-1a10-2882-685e-00197fff5925
##SAMPLE     : <BulkSample id="1">\n<mOrientation id="2">\n<double>0.0</double>\n<double>0.0</double>\n<double>-1.0</double>\n</mOrientation>\n</BulkSample>
#SPECTRUM    :
0,
0,
0,
0,
8,
31,
3257,
206307,
138,
1619,
1387,
6747,
978,
1471,
4062,
7208,
16594,
50210,
4830,
2767,
2834,
3082,
3465,
3640,
3881,
4122,
4285,
4499,
4722,
4563,
4471,
4741,
4960,
4528,
4522,
4692,
4597,
4609,
5524,
55530,
187817,
26476,
17157,
7230,
3116,
2976,
2919,
2785,
2822,
2743,
2732,
2729,
2592,
2584,
2569,
2603,
2421,
2400,
2427,
2314,
2406,
2193,
2223,
2063,
2086,
2004,
2023,
1943,
1868,
1983,
1867,
1806,
1764,
1582,
1588,
1593,
1611,
1487,
1599,
1553,
1456,
1550,
1405,
1416,
1385,
1384,
1321,
1282,
1361,
1340,
1202,
1184,
1239,
1247,
1234,
1247,
2303,
15156,
48925,
35572,
6506,
1314,
1056,
1084,
1038,
1090,
2101,
5645,
6699,
2676,
950,
747,
659,
761,
703,
714,
678,
683,
671,
661,
635,
606,
592,
637,
608,
593,
565,
602,
554,
559,
538,
525,
491,
472,
507,
473,
474,
488,
448,
407,
433,
412,
479,
436,
417,
349,
415,
351,
325,
346,
370,
413,
384,
338,
333,
347,
344,
332,
265,
283,
286,
285,
255,
244,
267,
237,
251,
231,
197,
207,
207,
190,
198,
195,
205,
210,
163,
175,
169,
186,
172,
154,
144,
162,
132,
132,
136,
127,
121,
115,
106,
99,
94,
104,
84,
98,
84,
74,
54,
57,
54,
66,
63,
58,
47,
45,
42,
41,
37,
37,
26,
30,
26,
17,
19,
20,
12,
2,
7,
7,
7,
3,
1,
2,
0,
0,
1,
0,
0,
0,
0,
0,
0,
0,
3,
2,
0,
0,
0,
0,
0,
0,
0,
0,
1,
0,
0,
0,
0,
0,
0,
0,
0,
0,
0,
0,
0,
0,
0,
0,
0,
1,
1,
0,
0,
1,
0,
1,
0,
2,
0,
0,
0,
0,
0,
0,
0,
0,
0,
0,
0,
0,
0,
0,
1,
0,
0,
0,
0,
0,
0,
0,
0,
0,
#ENDOFDATA   :

File: Pyrite_1_A1_15kV10nA130kHz_8kHz_100s.msa
#FORMAT      : EMSA/MAS Spectral Data File
#VERSION     : 1.0
#TITLE       : Bruker Nano spectrum Acquisition
#DATE        : 23-AUG-2019
#TIME        : 10:30
#OWNER       : Bruker Nano
#NPOINTS     : 4096
#NCOLUMNS    : 1
#XUNITS      : eV
#YUNITS      : counts
#DATATYPE    : Y
#XPERCHAN    : 5.00257
#OFFSET      : -482.8305
#BEAMKV      : 15
#SIGNALTYPE  : EDS
#ELEVANGLE   : 40
#AZIMANGLE   : 45
#LIVETIME    : 100
#REALTIME    : 101.269
#PROBECUR    : 10
#TAUWIND     : 0
#TDEADLYR    : 0
#TACTLYR     : 0.045
#TALWIND     : 0.004
#CHOFFSET    : 0.0
#XLABEL      : Energy (eV)
#YLABEL      : Counts
#EDSDET      : SDUTW
##DET_HASH   : c6370f9e-cc72-7559-f57e-203d75c8942b
##CALIB_HASH : fcf71094-1a10-2882-685e-00197fff5925
##SAMPLE     : <BulkSample id="1">\n<mOrientation id="2">\n<double>0.0</double>\n<double>0.0</double>\n<double>-1.0</double>\n</mOrientation>\n</BulkSample>
#SPECTRUM    :
0,
0,
0,
0,
0,
0,
171,
13901,
5,
130,
3098,
40018,
152,
104,
888,
382,
276,
1035,
262,
343,
240,
251,
287,
291,
275,
283,
269,
270,
258,
254,
236,
249,
258,
219,
227,
205,
213,
181,
173,
1144,
3593,
558,
373,
219,
155,
131,
111,
127,
143,
113,
131,
91,
107,
111,
106,
98,
90,
90,
92,
99,
120,
91,
83,
74,
73,
80,
71,
71,
78,
67,
65,
66,
55,
64,
57,
60,
47,
55,
56,
63,
40,
69,
52,
46,
51,
56,
57,
57,
34,
31,
40,
34,
45,
39,
34,
42,
51,
162,
525,
395,
95,
34,
37,
41,
30,
52,
41,
84,
107,
59,
28,
26,
20,
37,
32,
18,
31,
25,
21,
22,
20,
18,
30,
20,
23,
17,
18,
20,
15,
15,
22,
18,
15,
12,
14,
19,
18,
13,
8,
13,
14,
10,
13,
19,
12,
13,
15,
12,
10,
11,
14,
13,
12,
10,
9,
9,
5,
11,
10,
7,
9,
6,
6,
6,
11,
15,
5,
6,
5,
9,
3,
8,
8,
6,
8,
9,
11,
9,
6,
3,
8,
4,
9,
9,
8,
7,
9,
7,
6,
6,
8,
5,
5,
1,
4,
7,
11,
5,
4,
5,
5,
6,
8,
4,
4,
2,
4,
2,
4,
4,
4,
3,
1,
1,
3,
2,
1,
2,
3,
1,
1,
1,
1,
0,
0,
0,
0,
0,
0,
0,
0,
0,
0,
0,
0,
0,
0,
0,
0,
0,
0,
0,
0,
0,
0,
0,
0,
0,
0,
0,
0,
0,
0,
0,
0,
0,
0,
0,
0,
0,
0,
0,
0,
0,
0,
0,
0,
0,
0,
0,
0,
0,
0,
0,
0,
0,
0,
0,
0,
0,
0,
0,
0,
0,
0,
0,
0,
0,
0,
0,
0,
0,
0,
0,
#ENDOFDATA   :

File: Pyrite_1_A2_15kV10nA130kHz_8kHz_100s.msa
#FORMAT      : EMSA/MAS Spectral Data File
#VERSION     : 1.0
#TITLE       : Bruker Nano spectrum Acquisition
#DATE        : 23-AUG-2019
#TIME        : 10:32
#OWNER       : Bruker Nano
#NPOINTS     : 4096
#NCOLUMNS    : 1
#XUNITS      : eV
#YUNITS      : counts
#DATATYPE    : Y
#XPERCHAN    : 5.00257
#OFFSET      : -482.8305
#BEAMKV      : 15
#SIGNALTYPE  : EDS
#ELEVANGLE   : 40
#AZIMANGLE   : 45
#LIVETIME    : 100
#REALTIME    : 101.174
#PROBECUR    : 10
#TAUWIND     : 0
#TDEADLYR    : 0
#TACTLYR     : 0.045
#TALWIND     : 0.004
#CHOFFSET    : 0.0
#XLABEL      : Energy (eV)
#YLABEL      : Counts
#EDSDET      : SDUTW
##DET_HASH   : c6370f9e-cc72-7559-f57e-203d75c8942b
##CALIB_HASH : fcf71094-1a10-2882-685e-00197fff5925
##SAMPLE     : <BulkSample id="1">\n<mOrientation id="2">\n<double>0.0</double>\n<double>0.0</double>\n<double>-1.0</double>\n</mOrientation>\n</BulkSample>
#SPECTRUM    :
0,
0,
0,
0,
0,
0,
187,
13688,
2,
135,
2894,
37299,
150,
118,
914,
341,
285,
1098,
261,
374,
302,
237,
269,
239,
277,
284,
268,
264,
252,
201,
221,
221,
264,
223,
186,
209,
200,
200,
207,
1200,
3859,
577,
395,
221,
145,
127,
132,
122,
120,
114,
104,
101,
107,
112,
117,
100,
107,
87,
98,
99,
124,
89,
86,
92,
76,
70,
71,
52,
50,
66,
63,
62,
54,
60,
51,
65,
59,
43,
53,
62,
48,
41,
49,
51,
51,
54,
53,
42,
45,
35,
51,
58,
38,
43,
46,
47,
60,
196,
607,
476,
114,
28,
35,
26,
29,
30,
45,
84,
105,
54,
31,
24,
33,
37,
31,
24,
22,
26,
19,
28,
21,
30,
18,
20,
14,
20,
22,
17,
19,
20,
19,
22,
17,
20,
19,
19,
17,
20,
18,
11,
10,
10,
17,
13,
14,
13,
17,
7,
12,
10,
8,
10,
12,
6,
16,
13,
11,
12,
11,
11,
5,
12,
14,
10,
12,
7,
5,
13,
7,
6,
4,
8,
8,
10,
4,
11,
6,
4,
4,
9,
8,
4,
6,
7,
4,
6,
6,
5,
6,
5,
6,
4,
3,
1,
6,
1,
4,
5,
4,
4,
6,
1,
3,
7,
6,
2,
3,
7,
5,
5,
2,
1,
1,
0,
0,
0,
3,
0,
2,
1,
0,
0,
1,
1,
0,
0,
0,
0,
0,
0,
0,
0,
0,
0,
0,
0,
0,
0,
0,
0,
0,
0,
0,
0,
0,
0,
0,
0,
0,
0,
0,
0,
0,
0,
0,
0,
0,
0,
0,
0,
0,
0,
0,
0,
0,
0,
0,
0,
0,
0,
0,
0,
0,
0,
0,
0,
0,
0,
0,
0,
0,
0,
0,
0,
0,
0,
0,
0,
0,
0,
0,
0,
0,
0,
#ENDOFDATA   :