Folder: NeXLNotebooks/NeXLSpectrum/Pyrite fragments (part 4)

File: Pyrite_1_I1_15kV10nA130kHz_129kHz_100s.msa
#FORMAT      : EMSA/MAS Spectral Data File
#VERSION     : 1.0
#TITLE       : Bruker Nano spectrum Acquisition
#DATE        : 23-AUG-2019
#TIME        : 00:25
#OWNER       : Bruker Nano
#NPOINTS     : 4096
#NCOLUMNS    : 1
#XUNITS      : eV
#YUNITS      : counts
#DATATYPE    : Y
#XPERCHAN    : 5.00257
#OFFSET      : -482.8305
#BEAMKV      : 15
#SIGNALTYPE  : EDS
#ELEVANGLE   : 40
#AZIMANGLE   : 45
#LIVETIME    : 100
#REALTIME    : 131.648
#PROBECUR    : 10
#TAUWIND     : 0
#TDEADLYR    : 0
#TACTLYR     : 0.045
#TALWIND     : 0.004
#CHOFFSET    : 0.0
#XLABEL      : Energy (eV)
#YLABEL      : Counts
#EDSDET      : SDUTW
##DET_HASH   : c6370f9e-cc72-7559-f57e-203d75c8942b
##CALIB_HASH : fcf71094-1a10-2882-685e-00197fff5925
##SAMPLE     : <BulkSample id="1">\n<mOrientation id="2">\n<double>0.0</double>\n<double>0.0</double>\n<double>-1.0</double>\n</mOrientation>\n</BulkSample>
#SPECTRUM    :
0,
0,
0,
0,
15,
61,
4288,
275957,
228,
3970,
1072,
2726,
1143,
1640,
3828,
6518,
15201,
64593,
6291,
4162,
3844,
4199,
4536,
4694,
5072,
5162,
5285,
5237,
5269,
5153,
4859,
4897,
5166,
4909,
4805,
4763,
5067,
4874,
6168,
82766,
284736,
38293,
23410,
8926,
2958,
2740,
2699,
2736,
2511,
2590,
2480,
2401,
2478,
2262,
2337,
2201,
2194,
2177,
2108,
2056,
2024,
1997,
1914,
1824,
1883,
1876,
1737,
1732,
1744,
1586,
1640,
1578,
1492,
1360,
1368,
1410,
1399,
1405,
1370,
1312,
1372,
1329,
1228,
1266,
1274,
1201,
1211,
1146,
1093,
1124,
1091,
1077,
1055,
1092,
1077,
1133,
1742,
10890,
34780,
25588,
4838,
1104,
938,
867,
863,
902,
1598,
4215,
4960,
2116,
804,
669,
684,
702,
676,
655,
635,
568,
620,
624,
581,
596,
565,
591,
588,
557,
542,
529,
531,
512,
464,
457,
461,
441,
460,
400,
424,
434,
395,
413,
387,
400,
393,
393,
350,
395,
312,
330,
317,
327,
331,
313,
315,
294,
302,
259,
273,
285,
262,
284,
237,
270,
238,
244,
237,
256,
217,
216,
239,
218,
187,
183,
167,
172,
161,
179,
141,
160,
172,
148,
127,
136,
149,
131,
111,
125,
102,
110,
96,
107,
91,
92,
96,
88,
79,
81,
73,
67,
60,
76,
42,
58,
40,
58,
41,
44,
34,
28,
36,
27,
25,
24,
20,
29,
21,
23,
10,
15,
9,
4,
5,
4,
0,
0,
0,
0,
0,
0,
2,
0,
0,
2,
0,
0,
0,
1,
0,
0,
0,
0,
1,
0,
1,
0,
0,
0,
0,
0,
0,
0,
0,
0,
0,
0,
0,
1,
0,
0,
0,
0,
0,
0,
0,
0,
0,
1,
0,
0,
0,
0,
0,
0,
0,
0,
0,
0,
0,
0,
0,
0,
0,
0,
1,
0,
0,
1,
0,
0,
0,
0,
0,
0,
1,
0,
#ENDOFDATA   :

File: Pyrite_1_I2_15kV10nA130kHz_129kHz_100s.msa
#FORMAT      : EMSA/MAS Spectral Data File
#VERSION     : 1.0
#TITLE       : Bruker Nano spectrum Acquisition
#DATE        : 23-AUG-2019
#TIME        : 00:28
#OWNER       : Bruker Nano
#NPOINTS     : 4096
#NCOLUMNS    : 1
#XUNITS      : eV
#YUNITS      : counts
#DATATYPE    : Y
#XPERCHAN    : 5.00257
#OFFSET      : -482.8305
#BEAMKV      : 15
#SIGNALTYPE  : EDS
#ELEVANGLE   : 40
#AZIMANGLE   : 45
#LIVETIME    : 100
#REALTIME    : 131.551
#PROBECUR    : 10
#TAUWIND     : 0
#TDEADLYR    : 0
#TACTLYR     : 0.045
#TALWIND     : 0.004
#CHOFFSET    : 0.0
#XLABEL      : Energy (eV)
#YLABEL      : Counts
#EDSDET      : SDUTW
##DET_HASH   : c6370f9e-cc72-7559-f57e-203d75c8942b
##CALIB_HASH : fcf71094-1a10-2882-685e-00197fff5925
##SAMPLE     : <BulkSample id="1">\n<mOrientation id="2">\n<double>0.0</double>\n<double>0.0</double>\n<double>-1.0</double>\n</mOrientation>\n</BulkSample>
#SPECTRUM    :
0,
0,
0,
0,
17,
48,
4199,
276020,
262,
4078,
1114,
2577,
1151,
1629,
3617,
6638,
15454,
65132,
6236,
4129,
3936,
4186,
4532,
4727,
4947,
5153,
5288,
5206,
5320,
5080,
4865,
5133,
5184,
4864,
4843,
4910,
5043,
4892,
6171,
82524,
283817,
38199,
23200,
8865,
2997,
2616,
2640,
2643,
2627,
2617,
2439,
2411,
2403,
2404,
2339,
2176,
2294,
2121,
2073,
2013,
2022,
1997,
1917,
1978,
1846,
1803,
1773,
1707,
1694,
1714,
1567,
1557,
1498,
1367,
1417,
1405,
1404,
1372,
1390,
1334,
1323,
1284,
1286,
1251,
1265,
1255,
1191,
1213,
1123,
1092,
1142,
1008,
1064,
1060,
1112,
1042,
1910,
11193,
34839,
25527,
4798,
1080,
861,
876,
873,
936,
1582,
4277,
5023,
2081,
851,
688,
699,
713,
706,
648,
617,
679,
611,
619,
579,
567,
586,
566,
613,
545,
539,
554,
531,
493,
470,
449,
463,
438,
432,
462,
500,
421,
406,
391,
386,
392,
376,
361,
390,
355,
374,
346,
336,
359,
363,
289,
315,
288,
294,
284,
285,
277,
277,
257,
276,
263,
253,
216,
238,
238,
213,
210,
187,
187,
226,
160,
184,
165,
167,
180,
155,
166,
144,
158,
129,
142,
133,
142,
130,
119,
103,
111,
110,
94,
96,
96,
101,
75,
69,
80,
86,
67,
74,
65,
48,
54,
54,
41,
45,
36,
40,
31,
39,
27,
22,
25,
13,
15,
12,
13,
11,
16,
8,
8,
3,
1,
0,
0,
0,
0,
0,
0,
2,
0,
0,
0,
0,
0,
0,
0,
0,
0,
2,
1,
0,
0,
0,
0,
0,
0,
1,
0,
0,
0,
0,
0,
0,
0,
1,
0,
0,
0,
1,
0,
0,
2,
0,
0,
0,
0,
0,
0,
1,
0,
0,
0,
1,
0,
0,
0,
0,
0,
0,
2,
0,
0,
0,
0,
0,
1,
0,
0,
0,
0,
0,
0,
1,
0,
#ENDOFDATA   :

File: Pyrite_1_I3_15kV10nA130kHz_129kHz_100s.msa
#FORMAT      : EMSA/MAS Spectral Data File
#VERSION     : 1.0
#TITLE       : Bruker Nano spectrum Acquisition
#DATE        : 23-AUG-2019
#TIME        : 00:30
#OWNER       : Bruker Nano
#NPOINTS     : 4096
#NCOLUMNS    : 1
#XUNITS      : eV
#YUNITS      : counts
#DATATYPE    : Y
#XPERCHAN    : 5.00257
#OFFSET      : -482.8305
#BEAMKV      : 15
#SIGNALTYPE  : EDS
#ELEVANGLE   : 40
#AZIMANGLE   : 45
#LIVETIME    : 100
#REALTIME    : 131.601
#PROBECUR    : 10
#TAUWIND     : 0
#TDEADLYR    : 0
#TACTLYR     : 0.045
#TALWIND     : 0.004
#CHOFFSET    : 0.0
#XLABEL      : Energy (eV)
#YLABEL      : Counts
#EDSDET      : SDUTW
##DET_HASH   : c6370f9e-cc72-7559-f57e-203d75c8942b
##CALIB_HASH : fcf71094-1a10-2882-685e-00197fff5925
##SAMPLE     : <BulkSample id="1">\n<mOrientation id="2">\n<double>0.0</double>\n<double>0.0</double>\n<double>-1.0</double>\n</mOrientation>\n</BulkSample>
#SPECTRUM    :
0,
0,
0,
0,
11,
44,
4070,
274720,
242,
4089,
1094,
2553,
1160,
1674,
3758,
6711,
15156,
64921,
6266,
4129,
3906,
4185,
4560,
4880,
4883,
5231,
5161,
5284,
5392,
5168,
4887,
4969,
5110,
4993,
4814,
4845,
4973,
4817,
6158,
82773,
284103,
38153,
23054,
8932,
2902,
2760,
2677,
2585,
2568,
2642,
2471,
2463,
2404,
2302,
2315,
2196,
2210,
2210,
2125,
2085,
2008,
1938,
1976,
1843,
1824,
1799,
1727,
1733,
1648,
1677,
1591,
1584,
1502,
1359,
1362,
1391,
1434,
1371,
1413,
1362,
1272,
1340,
1297,
1295,
1226,
1147,
1211,
1197,
1076,
1154,
1075,
1046,
1050,
1061,
1049,
1133,
1790,
11093,
34851,
25384,
4734,
1034,
909,
937,
826,
926,
1593,
4224,
4906,
2062,
829,
700,
674,
767,
741,
636,
609,
578,
624,
583,
628,
559,
596,
581,
573,
529,
582,
519,
492,
513,
482,
462,
471,
441,
454,
424,
411,
419,
448,
401,
384,
397,
370,
385,
393,
369,
333,
359,
371,
330,
357,
306,
330,
325,
321,
302,
267,
281,
282,
264,
242,
265,
249,
247,
245,
203,
222,
209,
204,
197,
205,
197,
168,
167,
188,
182,
140,
170,
165,
149,
132,
130,
139,
114,
139,
133,
112,
103,
96,
93,
104,
85,
95,
96,
87,
74,
67,
66,
47,
69,
53,
45,
55,
39,
51,
43,
31,
29,
29,
40,
31,
16,
18,
20,
24,
21,
15,
13,
9,
7,
2,
0,
0,
0,
0,
1,
0,
0,
0,
2,
0,
3,
1,
0,
0,
0,
1,
0,
0,
0,
1,
0,
2,
0,
0,
0,
0,
0,
0,
0,
0,
3,
0,
1,
0,
1,
0,
0,
0,
2,
0,
0,
3,
0,
0,
0,
0,
0,
0,
0,
0,
1,
0,
0,
0,
0,
0,
0,
0,
0,
0,
0,
0,
0,
0,
0,
0,
0,
0,
0,
0,
0,
1,
0,
#ENDOFDATA   :

File: Pyrite_1_J1_15kV10nA130kHz_28kHz_100s.msa
#FORMAT      : EMSA/MAS Spectral Data File
#VERSION     : 1.0
#TITLE       : Bruker Nano spectrum Acquisition
#DATE        : 23-AUG-2019
#TIME        : 00:34
#OWNER       : Bruker Nano
#NPOINTS     : 4096
#NCOLUMNS    : 1
#XUNITS      : eV
#YUNITS      : counts
#DATATYPE    : Y
#XPERCHAN    : 5.00257
#OFFSET      : -482.8305
#BEAMKV      : 15
#SIGNALTYPE  : EDS
#ELEVANGLE   : 40
#AZIMANGLE   : 45
#LIVETIME    : 100
#REALTIME    : 105.389
#PROBECUR    : 10
#TAUWIND     : 0
#TDEADLYR    : 0
#TACTLYR     : 0.045
#TALWIND     : 0.004
#CHOFFSET    : 0.0
#XLABEL      : Energy (eV)
#YLABEL      : Counts
#EDSDET      : SDUTW
##DET_HASH   : c6370f9e-cc72-7559-f57e-203d75c8942b
##CALIB_HASH : fcf71094-1a10-2882-685e-00197fff5925
##SAMPLE     : <BulkSample id="1">\n<mOrientation id="2">\n<double>0.0</double>\n<double>0.0</double>\n<double>-1.0</double>\n</mOrientation>\n</BulkSample>
#SPECTRUM    :
0,
0,
0,
0,
0,
1,
745,
49498,
8,
141,
220,
1752,
171,
171,
2324,
859,
740,
3360,
342,
300,
343,
271,
302,
339,
382,
462,
455,
375,
491,
470,
510,
560,
610,
591,
662,
674,
754,
729,
1040,
16395,
57908,
7606,
4638,
1457,
349,
292,
327,
312,
348,
332,
359,
363,
392,
397,
374,
392,
391,
405,
425,
450,
457,
428,
496,
444,
417,
424,
446,
466,
467,
462,
456,
479,
472,
443,
454,
514,
491,
457,
479,
458,
465,
474,
514,
467,
476,
501,
510,
480,
470,
485,
466,
486,
465,
468,
475,
519,
866,
5787,
18474,
13832,
2446,
517,
486,
485,
482,
467,
947,
2478,
2828,
1061,
340,
251,
269,
261,
262,
227,
237,
231,
232,
246,
235,
274,
226,
238,
238,
222,
235,
211,
232,
221,
232,
234,
224,
225,
226,
205,
213,
227,
214,
204,
208,
206,
210,
198,
224,
210,
197,
185,
157,
208,
199,
143,
173,
181,
197,
171,
168,
169,
176,
163,
160,
154,
165,
151,
146,
153,
121,
135,
132,
128,
138,
121,
128,
100,
145,
123,
133,
111,
113,
112,
101,
78,
106,
78,
103,
94,
80,
91,
89,
73,
72,
60,
67,
71,
69,
59,
60,
57,
64,
44,
55,
65,
41,
47,
33,
37,
30,
29,
29,
31,
28,
31,
20,
18,
14,
19,
14,
8,
4,
4,
0,
1,
1,
2,
0,
0,
1,
0,
0,
0,
0,
0,
0,
0,
0,
0,
0,
0,
0,
0,
0,
0,
0,
0,
1,
0,
0,
1,
0,
0,
0,
0,
0,
0,
2,
0,
0,
0,
0,
0,
0,
0,
0,
0,
1,
0,
0,
0,
0,
0,
0,
0,
1,
0,
0,
0,
0,
0,
0,
0,
1,
0,
0,
0,
0,
0,
0,
0,
0,
0,
0,
0,
0,
0,
#ENDOFDATA   :

File: Pyrite_1_J2_15kV10nA130kHz_28kHz_100s.msa
#FORMAT      : EMSA/MAS Spectral Data File
#VERSION     : 1.0
#TITLE       : Bruker Nano spectrum Acquisition
#DATE        : 23-AUG-2019
#TIME        : 00:37
#OWNER       : Bruker Nano
#NPOINTS     : 4096
#NCOLUMNS    : 1
#XUNITS      : eV
#YUNITS      : counts
#DATATYPE    : Y
#XPERCHAN    : 5.00257
#OFFSET      : -482.8305
#BEAMKV      : 15
#SIGNALTYPE  : EDS
#ELEVANGLE   : 40
#AZIMANGLE   : 45
#LIVETIME    : 100
#REALTIME    : 106.923
#PROBECUR    : 10
#TAUWIND     : 0
#TDEADLYR    : 0
#TACTLYR     : 0.045
#TALWIND     : 0.004
#CHOFFSET    : 0.0
#XLABEL      : Energy (eV)
#YLABEL      : Counts
#EDSDET      : SDUTW
##DET_HASH   : c6370f9e-cc72-7559-f57e-203d75c8942b
##CALIB_HASH : fcf71094-1a10-2882-685e-00197fff5925
##SAMPLE     : <BulkSample id="1">\n<mOrientation id="2">\n<double>0.0</double>\n<double>0.0</double>\n<double>-1.0</double>\n</mOrientation>\n</BulkSample>
#SPECTRUM    :
0,
0,
0,
0,
1,
2,
926,
64652,
12,
168,
215,
1752,
181,
186,
2781,
1136,
751,
3778,
438,
379,
407,
377,
406,
383,
409,
499,
494,
562,
634,
634,
566,
657,
859,
752,
763,
866,
984,
1002,
1383,
21508,
75413,
10190,
6143,
1796,
423,
413,
427,
441,
448,
444,
453,
473,
479,
534,
510,
526,
554,
568,
563,
562,
603,
620,
535,
594,
581,
547,
629,
563,
588,
637,
608,
605,
590,
587,
579,
604,
603,
605,
614,
645,
641,
578,
606,
611,
600,
592,
634,
580,
576,
590,
541,
580,
573,
573,
601,
631,
1019,
6738,
22195,
16380,
3077,
635,
587,
522,
585,
602,
1077,
2848,
3272,
1223,
382,
278,
303,
327,
331,
329,
309,
300,
307,
325,
322,
345,
296,
326,
293,
280,
276,
271,
269,
272,
263,
252,
268,
269,
275,
251,
271,
234,
253,
253,
248,
211,
247,
237,
219,
261,
226,
243,
247,
204,
228,
195,
214,
207,
217,
199,
206,
214,
178,
174,
177,
184,
193,
182,
150,
160,
165,
141,
170,
138,
136,
143,
116,
136,
121,
141,
151,
122,
124,
118,
108,
118,
115,
105,
85,
99,
95,
89,
84,
82,
70,
73,
57,
60,
69,
66,
60,
70,
47,
60,
52,
39,
43,
37,
37,
35,
34,
22,
28,
36,
29,
26,
27,
19,
18,
16,
12,
7,
7,
8,
5,
2,
0,
0,
0,
0,
0,
0,
1,
0,
0,
0,
0,
0,
0,
0,
0,
0,
0,
0,
0,
0,
0,
0,
0,
0,
0,
0,
0,
0,
0,
0,
0,
1,
1,
0,
0,
0,
1,
0,
0,
0,
0,
0,
0,
0,
0,
0,
0,
0,
0,
0,
1,
0,
0,
0,
0,
2,
0,
0,
0,
0,
0,
0,
0,
0,
0,
0,
0,
0,
0,
0,
0,
0,
#ENDOFDATA   :

File: Pyrite_1_J3_15kV10nA130kHz_28kHz_100s.msa
#FORMAT      : EMSA/MAS Spectral Data File
#VERSION     : 1.0
#TITLE       : Bruker Nano spectrum Acquisition
#DATE        : 23-AUG-2019
#TIME        : 00:40
#OWNER       : Bruker Nano
#NPOINTS     : 4096
#NCOLUMNS    : 1
#XUNITS      : eV
#YUNITS      : counts
#DATATYPE    : Y
#XPERCHAN    : 5.00257
#OFFSET      : -482.8305
#BEAMKV      : 15
#SIGNALTYPE  : EDS
#ELEVANGLE   : 40
#AZIMANGLE   : 45
#LIVETIME    : 100
#REALTIME    : 104.406
#PROBECUR    : 10
#TAUWIND     : 0
#TDEADLYR    : 0
#TACTLYR     : 0.045
#TALWIND     : 0.004
#CHOFFSET    : 0.0
#XLABEL      : Energy (eV)
#YLABEL      : Counts
#EDSDET      : SDUTW
##DET_HASH   : c6370f9e-cc72-7559-f57e-203d75c8942b
##CALIB_HASH : fcf71094-1a10-2882-685e-00197fff5925
##SAMPLE     : <BulkSample id="1">\n<mOrientation id="2">\n<double>0.0</double>\n<double>0.0</double>\n<double>-1.0</double>\n</mOrientation>\n</BulkSample>
#SPECTRUM    :
0,
0,
0,
0,
1,
3,
590,
41936,
1,
129,
221,
1644,
123,
153,
2009,
806,
727,
3072,
359,
283,
298,
270,
294,
320,
335,
361,
358,
415,
483,
437,
415,
469,
523,
453,
518,
521,
584,
590,
814,
13231,
45598,
5782,
3835,
1171,
290,
271,
276,
270,
266,
278,
288,
280,
289,
322,
322,
307,
333,
344,
348,
364,
372,
331,
364,
361,
342,
339,
353,
377,
367,
342,
355,
394,
396,
372,
401,
388,
432,
403,
414,
399,
406,
389,
410,
438,
389,
416,
445,
419,
435,
416,
433,
430,
444,
439,
441,
501,
783,
5313,
16872,
12414,
2257,
516,
396,
399,
429,
479,
863,
2322,
2641,
1012,
258,
199,
199,
217,
204,
210,
179,
213,
212,
202,
197,
213,
225,
212,
208,
221,
214,
227,
219,
213,
181,
195,
187,
201,
191,
197,
186,
181,
201,
197,
176,
169,
189,
203,
171,
199,
175,
174,
175,
189,
152,
164,
184,
171,
173,
171,
154,
156,
142,
159,
141,
159,
127,
118,
134,
125,
117,
128,
118,
129,
109,
133,
136,
101,
103,
115,
116,
114,
97,
101,
95,
103,
83,
90,
98,
90,
82,
75,
72,
59,
78,
43,
70,
61,
63,
59,
50,
64,
45,
46,
46,
53,
39,
35,
33,
29,
36,
29,
36,
35,
20,
20,
19,
17,
14,
12,
9,
13,
8,
9,
4,
6,
0,
0,
0,
0,
0,
0,
0,
2,
0,
1,
1,
0,
0,
0,
0,
0,
0,
0,
0,
0,
1,
0,
0,
0,
1,
0,
2,
0,
1,
0,
0,
0,
0,
0,
0,
0,
1,
1,
0,
0,
1,
0,
0,
0,
0,
0,
0,
0,
0,
1,
0,
1,
0,
0,
0,
0,
0,
0,
0,
0,
0,
0,
0,
0,
0,
0,
1,
0,
0,
0,
0,
0,
#ENDOFDATA   :

File: Pyrite_1_K1_15kV10nA130kHz_2kHz_100s.msa
#FORMAT      : EMSA/MAS Spectral Data File
#VERSION     : 1.0
#TITLE       : Bruker Nano spectrum Acquisition
#DATE        : 23-AUG-2019
#TIME        : 00:43
#OWNER       : Bruker Nano
#NPOINTS     : 4096
#NCOLUMNS    : 1
#XUNITS      : eV
#YUNITS      : counts
#DATATYPE    : Y
#XPERCHAN    : 5.00257
#OFFSET      : -482.8305
#BEAMKV      : 15
#SIGNALTYPE  : EDS
#ELEVANGLE   : 40
#AZIMANGLE   : 45
#LIVETIME    : 99.999
#REALTIME    : 100.063
#PROBECUR    : 10
#TAUWIND     : 0
#TDEADLYR    : 0
#TACTLYR     : 0.045
#TALWIND     : 0.004
#CHOFFSET    : 0.0
#XLABEL      : Energy (eV)
#YLABEL      : Counts
#EDSDET      : SDUTW
##DET_HASH   : c6370f9e-cc72-7559-f57e-203d75c8942b
##CALIB_HASH : fcf71094-1a10-2882-685e-00197fff5925
##SAMPLE     : <BulkSample id="1">\n<mOrientation id="2">\n<double>0.0</double>\n<double>0.0</double>\n<double>-1.0</double>\n</mOrientation>\n</BulkSample>
#SPECTRUM    :
0,
0,
0,
0,
0,
0,
97,
8402,
0,
84,
193,
2157,
44,
40,
307,
213,
191,
916,
114,
139,
100,
92,
94,
78,
107,
102,
105,
78,
98,
76,
84,
79,
92,
69,
81,
78,
82,
60,
77,
1008,
3457,
448,
295,
112,
46,
59,
41,
48,
42,
39,
30,
31,
41,
39,
52,
27,
39,
32,
27,
48,
57,
30,
34,
23,
26,
26,
25,
22,
25,
21,
16,
23,
30,
16,
18,
28,
14,
26,
21,
18,
20,
16,
13,
13,
22,
12,
16,
19,
21,
11,
21,
19,
12,
9,
17,
15,
31,
187,
548,
388,
84,
29,
24,
11,
11,
12,
26,
97,
112,
33,
10,
11,
6,
15,
11,
10,
6,
9,
4,
4,
7,
9,
6,
15,
8,
6,
10,
3,
19,
9,
3,
5,
8,
9,
10,
10,
5,
11,
8,
4,
8,
5,
7,
7,
5,
9,
1,
4,
5,
3,
8,
8,
4,
9,
5,
5,
6,
9,
7,
3,
5,
3,
8,
6,
5,
7,
3,
9,
12,
6,
10,
4,
9,
12,
11,
8,
6,
6,
13,
8,
7,
7,
10,
13,
7,
5,
8,
7,
9,
6,
4,
6,
8,
3,
8,
6,
5,
5,
9,
5,
7,
7,
9,
5,
6,
6,
4,
4,
5,
8,
6,
4,
6,
4,
5,
2,
1,
2,
2,
2,
0,
1,
0,
1,
0,
0,
0,
0,
0,
0,
0,
0,
0,
0,
0,
0,
0,
0,
0,
0,
0,
0,
0,
0,
0,
0,
0,
0,
0,
0,
0,
0,
0,
0,
0,
0,
0,
0,
0,
0,
0,
0,
0,
0,
0,
0,
0,
0,
0,
0,
0,
0,
0,
0,
0,
0,
0,
0,
0,
0,
0,
0,
0,
0,
0,
0,
0,
0,
0,
0,
0,
0,
0,
0,
#ENDOFDATA   :

File: Pyrite_1_K2_15kV10nA130kHz_2kHz_100s.msa
#FORMAT      : EMSA/MAS Spectral Data File
#VERSION     : 1.0
#TITLE       : Bruker Nano spectrum Acquisition
#DATE        : 23-AUG-2019
#TIME        : 00:45
#OWNER       : Bruker Nano
#NPOINTS     : 4096
#NCOLUMNS    : 1
#XUNITS      : eV
#YUNITS      : counts
#DATATYPE    : Y
#XPERCHAN    : 5.00257
#OFFSET      : -482.8305
#BEAMKV      : 15
#SIGNALTYPE  : EDS
#ELEVANGLE   : 40
#AZIMANGLE   : 45
#LIVETIME    : 99.999
#REALTIME    : 100.111
#PROBECUR    : 10
#TAUWIND     : 0
#TDEADLYR    : 0
#TACTLYR     : 0.045
#TALWIND     : 0.004
#CHOFFSET    : 0.0
#XLABEL      : Energy (eV)
#YLABEL      : Counts
#EDSDET      : SDUTW
##DET_HASH   : c6370f9e-cc72-7559-f57e-203d75c8942b
##CALIB_HASH : fcf71094-1a10-2882-685e-00197fff5925
##SAMPLE     : <BulkSample id="1">\n<mOrientation id="2">\n<double>0.0</double>\n<double>0.0</double>\n<double>-1.0</double>\n</mOrientation>\n</BulkSample>
#SPECTRUM    :
0,
0,
0,
0,
0,
0,
105,
8351,
0,
96,
217,
2545,
54,
62,
378,
212,
250,
1062,
114,
156,
106,
104,
97,
86,
85,
98,
82,
85,
101,
91,
75,
97,
117,
84,
96,
83,
99,
87,
94,
1085,
3847,
461,
344,
114,
60,
42,
45,
52,
40,
37,
41,
57,
33,
32,
33,
39,
40,
44,
39,
48,
44,
37,
35,
37,
33,
35,
34,
28,
29,
24,
32,
36,
30,
31,
28,
22,
22,
25,
18,
20,
19,
24,
22,
14,
19,
23,
26,
24,
30,
27,
26,
11,
32,
18,
22,
27,
40,
245,
902,
616,
110,
21,
33,
25,
25,
27,
55,
148,
154,
57,
10,
6,
11,
20,
10,
10,
12,
11,
8,
7,
13,
13,
9,
13,
9,
9,
8,
13,
6,
6,
15,
12,
9,
10,
9,
13,
6,
4,
9,
8,
11,
6,
13,
9,
12,
11,
12,
12,
28,
14,
9,
8,
12,
11,
16,
12,
13,
20,
16,
10,
9,
6,
14,
9,
18,
10,
9,
12,
10,
11,
16,
11,
15,
11,
9,
12,
9,
8,
14,
8,
12,
10,
11,
15,
9,
10,
12,
15,
15,
7,
10,
13,
11,
11,
5,
12,
10,
8,
6,
7,
9,
10,
7,
5,
12,
1,
8,
4,
9,
4,
8,
4,
6,
6,
2,
2,
3,
5,
6,
1,
1,
2,
0,
0,
0,
0,
0,
0,
0,
0,
0,
0,
0,
0,
0,
0,
0,
0,
0,
0,
0,
0,
0,
0,
0,
0,
0,
0,
0,
0,
0,
0,
0,
0,
0,
0,
0,
0,
0,
0,
0,
0,
0,
0,
0,
0,
0,
0,
0,
0,
0,
0,
0,
0,
0,
0,
0,
0,
0,
0,
0,
0,
0,
0,
0,
0,
0,
0,
0,
0,
0,
0,
0,
0,
#ENDOFDATA   :

File: Pyrite_1_K3_15kV10nA130kHz_2kHz_100s.msa
#FORMAT      : EMSA/MAS Spectral Data File
#VERSION     : 1.0
#TITLE       : Bruker Nano spectrum Acquisition
#DATE        : 23-AUG-2019
#TIME        : 00:47
#OWNER       : Bruker Nano
#NPOINTS     : 4096
#NCOLUMNS    : 1
#XUNITS      : eV
#YUNITS      : counts
#DATATYPE    : Y
#XPERCHAN    : 5.00257
#OFFSET      : -482.8305
#BEAMKV      : 15
#SIGNALTYPE  : EDS
#ELEVANGLE   : 40
#AZIMANGLE   : 45
#LIVETIME    : 99.999
#REALTIME    : 100.038
#PROBECUR    : 10
#TAUWIND     : 0
#TDEADLYR    : 0
#TACTLYR     : 0.045
#TALWIND     : 0.004
#CHOFFSET    : 0.0
#XLABEL      : Energy (eV)
#YLABEL      : Counts
#EDSDET      : SDUTW
##DET_HASH   : c6370f9e-cc72-7559-f57e-203d75c8942b
##CALIB_HASH : fcf71094-1a10-2882-685e-00197fff5925
##SAMPLE     : <BulkSample id="1">\n<mOrientation id="2">\n<double>0.0</double>\n<double>0.0</double>\n<double>-1.0</double>\n</mOrientation>\n</BulkSample>
#SPECTRUM    :
0,
0,
0,
0,
0,
0,
103,
8434,
1,
83,
149,
1727,
44,
48,
269,
164,
177,
792,
108,
121,
86,
59,
67,
69,
68,
91,
72,
64,
62,
58,
74,
53,
75,
75,
55,
60,
56,
65,
73,
774,
2870,
391,
237,
92,
45,
38,
31,
31,
37,
30,
30,
34,
21,
34,
36,
35,
23,
27,
31,
29,
45,
35,
18,
25,
30,
33,
25,
23,
17,
21,
27,
22,
22,
25,
13,
18,
8,
21,
18,
18,
17,
19,
19,
20,
17,
22,
10,
20,
16,
18,
17,
20,
17,
33,
15,
27,
50,
335,
1026,
742,
130,
27,
22,
30,
26,
31,
68,
170,
206,
56,
14,
9,
9,
17,
11,
13,
13,
18,
8,
10,
6,
12,
9,
7,
9,
14,
4,
11,
7,
8,
8,
10,
7,
14,
4,
10,
14,
13,
13,
8,
9,
13,
15,
19,
12,
10,
12,
20,
11,
14,
11,
7,
12,
17,
12,
9,
15,
18,
18,
8,
14,
17,
18,
12,
14,
9,
13,
13,
11,
12,
14,
11,
13,
11,
7,
14,
10,
8,
12,
15,
9,
11,
15,
10,
14,
9,
14,
14,
15,
16,
11,
12,
9,
7,
13,
9,
14,
6,
7,
7,
8,
6,
6,
10,
13,
5,
5,
9,
2,
0,
2,
7,
4,
4,
3,
2,
3,
2,
1,
0,
1,
0,
2,
0,
0,
0,
0,
0,
0,
0,
0,
0,
0,
0,
0,
0,
0,
0,
0,
0,
0,
0,
0,
0,
0,
0,
0,
0,
0,
0,
0,
0,
0,
0,
0,
0,
0,
0,
0,
0,
0,
0,
0,
0,
0,
0,
0,
0,
0,
0,
0,
0,
0,
0,
0,
0,
0,
0,
0,
0,
0,
0,
0,
0,
0,
0,
0,
0,
0,
0,
0,
0,
0,
0,
#ENDOFDATA   :

File: Pyrite_1_L1_15kV10nA130kHz_114kHz_100s.msa
#FORMAT      : EMSA/MAS Spectral Data File
#VERSION     : 1.0
#TITLE       : Bruker Nano spectrum Acquisition
#DATE        : 23-AUG-2019
#TIME        : 00:59
#OWNER       : Bruker Nano
#NPOINTS     : 4096
#NCOLUMNS    : 1
#XUNITS      : eV
#YUNITS      : counts
#DATATYPE    : Y
#XPERCHAN    : 5.00257
#OFFSET      : -482.8305
#BEAMKV      : 15
#SIGNALTYPE  : EDS
#ELEVANGLE   : 40
#AZIMANGLE   : 45
#LIVETIME    : 100
#REALTIME    : 127.143
#PROBECUR    : 10
#TAUWIND     : 0
#TDEADLYR    : 0
#TACTLYR     : 0.045
#TALWIND     : 0.004
#CHOFFSET    : 0.0
#XLABEL      : Energy (eV)
#YLABEL      : Counts
#EDSDET      : SDUTW
##DET_HASH   : c6370f9e-cc72-7559-f57e-203d75c8942b
##CALIB_HASH : fcf71094-1a10-2882-685e-00197fff5925
##SAMPLE     : <BulkSample id="1">\n<mOrientation id="2">\n<double>0.0</double>\n<double>0.0</double>\n<double>-1.0</double>\n</mOrientation>\n</BulkSample>
#SPECTRUM    :
0,
0,
0,
0,
8,
38,
3063,
206706,
177,
3556,
1495,
8237,
1074,
1480,
4649,
5411,
12386,
52628,
5190,
4244,
3242,
3454,
3695,
3833,
4047,
4257,
4209,
4404,
4575,
4212,
4149,
4204,
4428,
4143,
4178,
4183,
4381,
4162,
5431,
73277,
252479,
33852,
20589,
7774,
2556,
2319,
2326,
2218,
2274,
2213,
2177,
2074,
2056,
2047,
2008,
2104,
1911,
1889,
1858,
1817,
1843,
1742,
1767,
1727,
1665,
1625,
1551,
1524,
1499,
1562,
1466,
1395,
1325,
1225,
1253,
1268,
1316,
1255,
1295,
1269,
1217,
1225,
1154,
1144,
1131,
1080,
1098,
1033,
981,
1020,
986,
968,
938,
989,
885,
1016,
1643,
10126,
32653,
23984,
4381,
965,
853,
838,
796,
859,
1517,
3989,
4583,
1928,
756,
621,
653,
762,
762,
692,
602,
585,
552,
508,
553,
573,
562,
526,
527,
479,
475,
491,
459,
463,
438,
429,
433,
420,
423,
465,
421,
437,
424,
416,
352,
358,
359,
364,
351,
358,
314,
323,
333,
331,
294,
342,
284,
275,
263,
305,
270,
266,
238,
251,
244,
202,
224,
248,
236,
221,
206,
207,
218,
207,
197,
165,
172,
152,
171,
178,
154,
152,
169,
149,
146,
128,
122,
124,
109,
124,
96,
116,
116,
100,
93,
89,
89,
91,
74,
72,
65,
56,
74,
50,
48,
53,
47,
41,
34,
55,
35,
27,
30,
33,
31,
19,
20,
11,
15,
18,
17,
13,
8,
9,
5,
0,
2,
0,
0,
0,
0,
0,
0,
3,
2,
0,
0,
0,
0,
0,
0,
0,
0,
0,
0,
0,
0,
0,
0,
0,
0,
0,
0,
3,
0,
1,
1,
0,
2,
0,
0,
1,
0,
0,
0,
1,
0,
0,
0,
0,
0,
0,
0,
0,
0,
1,
0,
0,
0,
0,
0,
0,
0,
0,
0,
0,
0,
0,
0,
0,
0,
0,
0,
0,
1,
0,
0,
0,
#ENDOFDATA   :

File: Pyrite_1_L2_15kV10nA130kHz_114kHz_100s.msa
#FORMAT      : EMSA/MAS Spectral Data File
#VERSION     : 1.0
#TITLE       : Bruker Nano spectrum Acquisition
#DATE        : 23-AUG-2019
#TIME        : 01:02
#OWNER       : Bruker Nano
#NPOINTS     : 4096
#NCOLUMNS    : 1
#XUNITS      : eV
#YUNITS      : counts
#DATATYPE    : Y
#XPERCHAN    : 5.00257
#OFFSET      : -482.8305
#BEAMKV      : 15
#SIGNALTYPE  : EDS
#ELEVANGLE   : 40
#AZIMANGLE   : 45
#LIVETIME    : 100
#REALTIME    : 126.888
#PROBECUR    : 10
#TAUWIND     : 0
#TDEADLYR    : 0
#TACTLYR     : 0.045
#TALWIND     : 0.004
#CHOFFSET    : 0.0
#XLABEL      : Energy (eV)
#YLABEL      : Counts
#EDSDET      : SDUTW
##DET_HASH   : c6370f9e-cc72-7559-f57e-203d75c8942b
##CALIB_HASH : fcf71094-1a10-2882-685e-00197fff5925
##SAMPLE     : <BulkSample id="1">\n<mOrientation id="2">\n<double>0.0</double>\n<double>0.0</double>\n<double>-1.0</double>\n</mOrientation>\n</BulkSample>
#SPECTRUM    :
0,
0,
0,
0,
5,
35,
3089,
207057,
181,
3608,
1600,
8727,
1194,
1588,
4803,
5921,
12052,
52185,
5266,
4409,
3515,
3455,
3555,
3799,
3959,
4189,
4261,
4322,
4479,
4237,
4144,
4139,
4399,
4165,
4080,
4057,
4303,
4145,
5343,
72906,
249874,
33768,
20242,
7842,
2557,
2326,
2230,
2260,
2227,
2153,
2117,
2113,
2099,
1998,
1932,
1923,
1913,
1927,
1831,
1760,
1805,
1749,
1766,
1696,
1673,
1564,
1543,
1622,
1495,
1512,
1425,
1432,
1336,
1235,
1265,
1309,
1314,
1254,
1270,
1225,
1197,
1184,
1109,
1128,
1100,
1108,
1021,
1055,
1083,
965,
997,
967,
999,
1019,
934,
1025,
1512,
10226,
32533,
23901,
4377,
991,
803,
845,
804,
795,
1466,
3869,
4539,
1880,
772,
676,
656,
743,
742,
660,
534,
578,
560,
545,
571,
507,
556,
482,
534,
477,
522,
500,
461,
428,
449,
441,
414,
399,
417,
426,
383,
384,
385,
408,
356,
367,
355,
343,
380,
352,
311,
321,
318,
323,
340,
285,
282,
293,
279,
258,
276,
286,
268,
228,
235,
247,
223,
222,
225,
174,
229,
213,
188,
180,
187,
183,
185,
153,
157,
174,
131,
135,
151,
147,
138,
113,
123,
135,
109,
98,
124,
104,
91,
87,
88,
90,
81,
91,
80,
56,
68,
66,
68,
54,
54,
65,
48,
40,
42,
38,
46,
25,
39,
31,
31,
28,
26,
10,
15,
18,
9,
12,
8,
5,
0,
2,
0,
0,
0,
1,
0,
0,
0,
2,
4,
0,
0,
0,
0,
0,
0,
1,
0,
0,
0,
0,
0,
0,
1,
0,
0,
0,
0,
0,
0,
0,
1,
0,
0,
0,
0,
0,
1,
1,
0,
0,
0,
1,
0,
0,
0,
0,
0,
0,
0,
0,
0,
1,
0,
0,
0,
0,
0,
0,
1,
0,
0,
0,
0,
0,
0,
1,
1,
0,
0,
0,
0,
0,
#ENDOFDATA   :