Folder: NeXLNotebooks/NeXLSpectrum/Pyrite fragments (part 3)

File: Pyrite_1_E2_15kV10nA130kHz_95kHz_100s.msa
#FORMAT      : EMSA/MAS Spectral Data File
#VERSION     : 1.0
#TITLE       : Bruker Nano spectrum Acquisition
#DATE        : 23-AUG-2019
#TIME        : 11:08
#OWNER       : Bruker Nano
#NPOINTS     : 4096
#NCOLUMNS    : 1
#XUNITS      : eV
#YUNITS      : counts
#DATATYPE    : Y
#XPERCHAN    : 5.00257
#OFFSET      : -482.8305
#BEAMKV      : 15
#SIGNALTYPE  : EDS
#ELEVANGLE   : 40
#AZIMANGLE   : 45
#LIVETIME    : 100
#REALTIME    : 121.678
#PROBECUR    : 10
#TAUWIND     : 0
#TDEADLYR    : 0
#TACTLYR     : 0.045
#TALWIND     : 0.004
#CHOFFSET    : 0.0
#XLABEL      : Energy (eV)
#YLABEL      : Counts
#EDSDET      : SDUTW
##DET_HASH   : c6370f9e-cc72-7559-f57e-203d75c8942b
##CALIB_HASH : fcf71094-1a10-2882-685e-00197fff5925
##SAMPLE     : <BulkSample id="1">\n<mOrientation id="2">\n<double>0.0</double>\n<double>0.0</double>\n<double>-1.0</double>\n</mOrientation>\n</BulkSample>
#SPECTRUM    :
0,
0,
0,
0,
6,
31,
2373,
166294,
73,
1289,
1248,
9255,
990,
1108,
7720,
4593,
5892,
26214,
2505,
1781,
1827,
1945,
2132,
2204,
2386,
2712,
2843,
2958,
3093,
2960,
3038,
3173,
3319,
3289,
3216,
3455,
3745,
3468,
4529,
63218,
218860,
29155,
17666,
6386,
1986,
1777,
1742,
1826,
1782,
1783,
1763,
1752,
1731,
1687,
1736,
1725,
1671,
1698,
1722,
1580,
1619,
1626,
1556,
1589,
1522,
1528,
1521,
1425,
1384,
1452,
1393,
1361,
1331,
1188,
1203,
1229,
1278,
1240,
1247,
1205,
1203,
1209,
1102,
1141,
1102,
1089,
1084,
1062,
1044,
1019,
1013,
941,
965,
941,
937,
1020,
1632,
9986,
31892,
23175,
4471,
957,
785,
819,
817,
878,
1455,
3768,
4530,
1877,
750,
571,
617,
627,
616,
561,
533,
531,
559,
572,
560,
479,
525,
477,
514,
489,
489,
439,
463,
421,
424,
415,
411,
410,
388,
398,
381,
379,
436,
408,
363,
378,
360,
307,
319,
335,
357,
307,
332,
286,
302,
307,
284,
259,
279,
296,
288,
268,
260,
234,
225,
228,
233,
201,
204,
204,
196,
183,
193,
183,
187,
177,
172,
166,
157,
145,
132,
140,
135,
128,
144,
122,
129,
113,
115,
114,
105,
102,
113,
83,
91,
82,
83,
87,
82,
74,
70,
67,
56,
47,
58,
53,
45,
39,
41,
41,
34,
28,
33,
20,
19,
19,
22,
22,
11,
20,
10,
8,
10,
5,
8,
2,
0,
0,
4,
0,
0,
0,
0,
0,
0,
0,
0,
0,
0,
0,
0,
3,
0,
0,
0,
0,
0,
0,
0,
1,
0,
0,
0,
0,
0,
0,
0,
0,
0,
0,
1,
0,
0,
0,
0,
0,
0,
0,
0,
0,
0,
0,
0,
0,
0,
0,
0,
0,
0,
0,
0,
0,
0,
0,
0,
0,
0,
0,
0,
1,
1,
0,
0,
0,
0,
0,
0,
0,
#ENDOFDATA   :

File: Pyrite_1_E3_15kV10nA130kHz_95kHz_100s.msa
#FORMAT      : EMSA/MAS Spectral Data File
#VERSION     : 1.0
#TITLE       : Bruker Nano spectrum Acquisition
#DATE        : 23-AUG-2019
#TIME        : 11:11
#OWNER       : Bruker Nano
#NPOINTS     : 4096
#NCOLUMNS    : 1
#XUNITS      : eV
#YUNITS      : counts
#DATATYPE    : Y
#XPERCHAN    : 5.00257
#OFFSET      : -482.8305
#BEAMKV      : 15
#SIGNALTYPE  : EDS
#ELEVANGLE   : 40
#AZIMANGLE   : 45
#LIVETIME    : 100
#REALTIME    : 121.782
#PROBECUR    : 10
#TAUWIND     : 0
#TDEADLYR    : 0
#TACTLYR     : 0.045
#TALWIND     : 0.004
#CHOFFSET    : 0.0
#XLABEL      : Energy (eV)
#YLABEL      : Counts
#EDSDET      : SDUTW
##DET_HASH   : c6370f9e-cc72-7559-f57e-203d75c8942b
##CALIB_HASH : fcf71094-1a10-2882-685e-00197fff5925
##SAMPLE     : <BulkSample id="1">\n<mOrientation id="2">\n<double>0.0</double>\n<double>0.0</double>\n<double>-1.0</double>\n</mOrientation>\n</BulkSample>
#SPECTRUM    :
0,
0,
0,
0,
4,
22,
2457,
165269,
86,
1424,
1212,
8902,
987,
1078,
7114,
4292,
6090,
26704,
2593,
1797,
1815,
1929,
2137,
2389,
2476,
2728,
2720,
2933,
3157,
3073,
3025,
3139,
3400,
3235,
3235,
3390,
3563,
3520,
4552,
64014,
220089,
29656,
17795,
6441,
2034,
1825,
1788,
1837,
1807,
1877,
1780,
1805,
1819,
1707,
1734,
1777,
1727,
1660,
1632,
1686,
1639,
1572,
1528,
1585,
1590,
1580,
1477,
1442,
1460,
1421,
1391,
1339,
1262,
1191,
1163,
1229,
1228,
1216,
1190,
1205,
1163,
1142,
1162,
1131,
1050,
1057,
1101,
1063,
994,
1020,
990,
1039,
991,
979,
949,
959,
1518,
10107,
31807,
23485,
4375,
978,
789,
831,
841,
895,
1459,
3917,
4476,
1849,
767,
618,
592,
621,
602,
554,
593,
547,
553,
525,
523,
542,
511,
524,
475,
508,
441,
469,
488,
446,
408,
417,
423,
407,
424,
407,
379,
374,
393,
362,
372,
350,
336,
349,
343,
326,
339,
328,
341,
305,
332,
308,
280,
278,
305,
274,
275,
242,
246,
253,
232,
210,
240,
213,
244,
213,
224,
209,
205,
201,
189,
174,
172,
181,
170,
186,
141,
131,
122,
139,
124,
130,
134,
132,
122,
119,
117,
111,
88,
86,
87,
96,
82,
78,
78,
75,
76,
70,
59,
68,
63,
64,
51,
41,
48,
29,
45,
33,
48,
31,
27,
26,
20,
29,
24,
9,
9,
13,
12,
8,
0,
0,
0,
0,
1,
0,
0,
0,
0,
0,
0,
0,
0,
0,
0,
1,
0,
0,
0,
0,
0,
0,
0,
0,
0,
0,
0,
0,
0,
0,
1,
0,
0,
0,
0,
0,
0,
0,
0,
1,
0,
0,
0,
0,
0,
1,
0,
0,
0,
0,
0,
0,
0,
0,
0,
0,
0,
0,
0,
1,
0,
0,
0,
0,
1,
0,
0,
0,
0,
0,
1,
1,
0,
0,
#ENDOFDATA   :

File: Pyrite_1_F1_15kV10nA130kHz_114kHz_100s.msa
#FORMAT      : EMSA/MAS Spectral Data File
#VERSION     : 1.0
#TITLE       : Bruker Nano spectrum Acquisition
#DATE        : 23-AUG-2019
#TIME        : 11:13
#OWNER       : Bruker Nano
#NPOINTS     : 4096
#NCOLUMNS    : 1
#XUNITS      : eV
#YUNITS      : counts
#DATATYPE    : Y
#XPERCHAN    : 5.00257
#OFFSET      : -482.8305
#BEAMKV      : 15
#SIGNALTYPE  : EDS
#ELEVANGLE   : 40
#AZIMANGLE   : 45
#LIVETIME    : 100
#REALTIME    : 127.211
#PROBECUR    : 10
#TAUWIND     : 0
#TDEADLYR    : 0
#TACTLYR     : 0.045
#TALWIND     : 0.004
#CHOFFSET    : 0.0
#XLABEL      : Energy (eV)
#YLABEL      : Counts
#EDSDET      : SDUTW
##DET_HASH   : c6370f9e-cc72-7559-f57e-203d75c8942b
##CALIB_HASH : fcf71094-1a10-2882-685e-00197fff5925
##SAMPLE     : <BulkSample id="1">\n<mOrientation id="2">\n<double>0.0</double>\n<double>0.0</double>\n<double>-1.0</double>\n</mOrientation>\n</BulkSample>
#SPECTRUM    :
0,
0,
0,
0,
7,
41,
3251,
206642,
174,
3483,
1724,
10784,
1152,
1497,
4918,
6048,
12191,
52460,
5095,
4061,
3367,
3475,
3675,
3858,
4004,
4209,
4359,
4356,
4434,
4277,
4061,
4190,
4334,
4148,
4088,
4232,
4423,
4312,
5324,
73439,
252896,
33757,
20591,
7848,
2614,
2381,
2256,
2297,
2235,
2217,
2201,
2101,
2098,
2002,
2023,
2017,
1939,
1900,
1820,
1791,
1728,
1693,
1657,
1721,
1647,
1629,
1574,
1521,
1531,
1551,
1480,
1387,
1382,
1246,
1282,
1274,
1350,
1273,
1232,
1243,
1200,
1164,
1131,
1117,
1055,
1121,
1027,
1017,
1008,
1016,
994,
964,
967,
980,
973,
974,
1556,
10078,
32376,
23548,
4340,
998,
859,
803,
805,
833,
1472,
3901,
4633,
1892,
745,
634,
638,
633,
648,
643,
546,
557,
559,
590,
551,
549,
536,
508,
526,
545,
482,
477,
446,
464,
426,
428,
428,
437,
494,
408,
418,
387,
377,
375,
371,
367,
358,
349,
332,
335,
319,
318,
312,
306,
329,
253,
309,
276,
305,
266,
259,
249,
248,
252,
232,
237,
239,
223,
207,
237,
228,
194,
198,
212,
170,
170,
179,
164,
165,
160,
152,
145,
131,
129,
155,
121,
124,
133,
129,
106,
94,
117,
105,
83,
97,
91,
101,
79,
89,
62,
69,
67,
61,
67,
68,
56,
50,
48,
44,
46,
35,
44,
45,
29,
32,
20,
30,
18,
18,
17,
23,
12,
6,
6,
7,
7,
0,
3,
0,
0,
2,
0,
0,
0,
0,
0,
0,
0,
0,
0,
0,
1,
0,
0,
0,
0,
0,
0,
0,
0,
0,
0,
0,
0,
1,
0,
3,
0,
0,
0,
0,
0,
0,
1,
0,
1,
0,
0,
1,
0,
0,
0,
0,
0,
0,
0,
0,
0,
0,
0,
0,
0,
0,
0,
0,
1,
1,
1,
0,
0,
0,
0,
0,
0,
0,
0,
0,
0,
#ENDOFDATA   :

File: Pyrite_1_F2_15kV10nA130kHz_114kHz_100s.msa
#FORMAT      : EMSA/MAS Spectral Data File
#VERSION     : 1.0
#TITLE       : Bruker Nano spectrum Acquisition
#DATE        : 23-AUG-2019
#TIME        : 11:16
#OWNER       : Bruker Nano
#NPOINTS     : 4096
#NCOLUMNS    : 1
#XUNITS      : eV
#YUNITS      : counts
#DATATYPE    : Y
#XPERCHAN    : 5.00257
#OFFSET      : -482.8305
#BEAMKV      : 15
#SIGNALTYPE  : EDS
#ELEVANGLE   : 40
#AZIMANGLE   : 45
#LIVETIME    : 100
#REALTIME    : 127.241
#PROBECUR    : 10
#TAUWIND     : 0
#TDEADLYR    : 0
#TACTLYR     : 0.045
#TALWIND     : 0.004
#CHOFFSET    : 0.0
#XLABEL      : Energy (eV)
#YLABEL      : Counts
#EDSDET      : SDUTW
##DET_HASH   : c6370f9e-cc72-7559-f57e-203d75c8942b
##CALIB_HASH : fcf71094-1a10-2882-685e-00197fff5925
##SAMPLE     : <BulkSample id="1">\n<mOrientation id="2">\n<double>0.0</double>\n<double>0.0</double>\n<double>-1.0</double>\n</mOrientation>\n</BulkSample>
#SPECTRUM    :
0,
0,
0,
0,
8,
30,
3183,
206888,
212,
3485,
1733,
10583,
1136,
1453,
4552,
5513,
12429,
52936,
5382,
4044,
3324,
3528,
3666,
3837,
4023,
4303,
4184,
4417,
4510,
4297,
4204,
4238,
4370,
4251,
4052,
4165,
4309,
4265,
5404,
73729,
253756,
33855,
20955,
7760,
2584,
2393,
2321,
2316,
2249,
2194,
2135,
2102,
2094,
2085,
2013,
2048,
1971,
1842,
1884,
1907,
1806,
1737,
1701,
1720,
1702,
1663,
1629,
1575,
1484,
1505,
1450,
1418,
1393,
1251,
1281,
1311,
1311,
1316,
1277,
1274,
1220,
1165,
1152,
1139,
1143,
1056,
1059,
1065,
1072,
1027,
942,
933,
985,
1014,
937,
961,
1604,
10254,
32488,
23813,
4510,
973,
846,
819,
771,
805,
1428,
3908,
4558,
1949,
750,
630,
644,
697,
681,
611,
586,
548,
554,
547,
525,
548,
560,
519,
498,
508,
477,
451,
472,
432,
414,
407,
400,
399,
394,
397,
395,
415,
373,
347,
370,
363,
370,
348,
357,
335,
362,
325,
282,
298,
295,
293,
313,
279,
285,
275,
251,
276,
257,
256,
235,
238,
233,
204,
219,
192,
232,
166,
219,
199,
149,
174,
165,
159,
187,
153,
126,
137,
128,
146,
146,
128,
119,
129,
110,
104,
118,
118,
108,
100,
97,
88,
85,
89,
83,
74,
77,
74,
62,
57,
70,
55,
51,
51,
43,
40,
39,
35,
48,
27,
29,
29,
29,
16,
20,
6,
11,
22,
10,
6,
0,
6,
1,
0,
0,
0,
0,
0,
0,
0,
0,
0,
1,
0,
0,
0,
0,
0,
1,
0,
0,
0,
0,
0,
0,
0,
0,
0,
0,
0,
0,
0,
1,
1,
1,
0,
0,
0,
0,
0,
0,
1,
0,
0,
0,
0,
0,
0,
0,
0,
0,
0,
0,
0,
0,
0,
0,
0,
0,
0,
0,
0,
0,
0,
0,
0,
1,
0,
0,
1,
0,
0,
0,
0,
#ENDOFDATA   :

File: Pyrite_1_F3_15kV10nA130kHz_114kHz_100s.msa
#FORMAT      : EMSA/MAS Spectral Data File
#VERSION     : 1.0
#TITLE       : Bruker Nano spectrum Acquisition
#DATE        : 23-AUG-2019
#TIME        : 11:19
#OWNER       : Bruker Nano
#NPOINTS     : 4096
#NCOLUMNS    : 1
#XUNITS      : eV
#YUNITS      : counts
#DATATYPE    : Y
#XPERCHAN    : 5.00257
#OFFSET      : -482.8305
#BEAMKV      : 15
#SIGNALTYPE  : EDS
#ELEVANGLE   : 40
#AZIMANGLE   : 45
#LIVETIME    : 100
#REALTIME    : 127.239
#PROBECUR    : 10
#TAUWIND     : 0
#TDEADLYR    : 0
#TACTLYR     : 0.045
#TALWIND     : 0.004
#CHOFFSET    : 0.0
#XLABEL      : Energy (eV)
#YLABEL      : Counts
#EDSDET      : SDUTW
##DET_HASH   : c6370f9e-cc72-7559-f57e-203d75c8942b
##CALIB_HASH : fcf71094-1a10-2882-685e-00197fff5925
##SAMPLE     : <BulkSample id="1">\n<mOrientation id="2">\n<double>0.0</double>\n<double>0.0</double>\n<double>-1.0</double>\n</mOrientation>\n</BulkSample>
#SPECTRUM    :
0,
0,
0,
0,
8,
30,
3082,
207045,
176,
3495,
1721,
10705,
1144,
1451,
4381,
5726,
12470,
52743,
5190,
3857,
3312,
3460,
3669,
3937,
4006,
4201,
4283,
4339,
4537,
4148,
4203,
4230,
4431,
4302,
4141,
4311,
4364,
4196,
5390,
74031,
252119,
33749,
20438,
7862,
2587,
2362,
2372,
2315,
2279,
2190,
2172,
2097,
2087,
1955,
2035,
1923,
1900,
1882,
1842,
1847,
1787,
1767,
1718,
1656,
1605,
1622,
1590,
1575,
1567,
1488,
1472,
1375,
1326,
1256,
1249,
1261,
1320,
1277,
1223,
1214,
1218,
1119,
1153,
1131,
1138,
1111,
991,
1036,
1044,
1042,
990,
1002,
970,
975,
966,
1037,
1597,
10183,
32331,
23684,
4434,
986,
815,
807,
785,
860,
1495,
3964,
4579,
1872,
782,
672,
601,
743,
715,
619,
625,
572,
555,
536,
506,
530,
490,
490,
518,
493,
510,
462,
439,
444,
434,
411,
422,
419,
407,
400,
425,
409,
404,
387,
371,
375,
363,
344,
349,
340,
323,
319,
318,
302,
304,
320,
268,
291,
268,
284,
261,
250,
240,
257,
248,
235,
235,
232,
212,
201,
226,
193,
210,
191,
186,
174,
162,
164,
172,
156,
163,
161,
168,
135,
146,
110,
102,
115,
121,
105,
111,
105,
101,
112,
98,
98,
105,
80,
76,
87,
67,
62,
53,
60,
57,
56,
51,
51,
49,
41,
30,
34,
36,
27,
28,
30,
24,
18,
18,
14,
12,
6,
5,
8,
3,
3,
1,
2,
0,
0,
0,
0,
0,
0,
1,
0,
0,
1,
0,
0,
0,
1,
2,
0,
0,
0,
0,
0,
0,
0,
0,
1,
2,
0,
0,
1,
0,
0,
0,
0,
0,
0,
1,
0,
0,
0,
0,
0,
0,
0,
0,
0,
0,
0,
0,
1,
0,
0,
0,
0,
0,
2,
0,
0,
0,
0,
0,
1,
1,
0,
0,
0,
1,
0,
0,
0,
0,
0,
#ENDOFDATA   :

File: Pyrite_1_G1_15kV10nA130kHz_129kHz_100s.msa
#FORMAT      : EMSA/MAS Spectral Data File
#VERSION     : 1.0
#TITLE       : Bruker Nano spectrum Acquisition
#DATE        : 23-AUG-2019
#TIME        : 00:02
#OWNER       : Bruker Nano
#NPOINTS     : 4096
#NCOLUMNS    : 1
#XUNITS      : eV
#YUNITS      : counts
#DATATYPE    : Y
#XPERCHAN    : 5.00257
#OFFSET      : -482.8305
#BEAMKV      : 15
#SIGNALTYPE  : EDS
#ELEVANGLE   : 40
#AZIMANGLE   : 45
#LIVETIME    : 100
#REALTIME    : 131.588
#PROBECUR    : 10
#TAUWIND     : 0
#TDEADLYR    : 0
#TACTLYR     : 0.045
#TALWIND     : 0.004
#CHOFFSET    : 0.0
#XLABEL      : Energy (eV)
#YLABEL      : Counts
#EDSDET      : SDUTW
##DET_HASH   : c6370f9e-cc72-7559-f57e-203d75c8942b
##CALIB_HASH : fcf71094-1a10-2882-685e-00197fff5925
##SAMPLE     : <BulkSample id="1">\n<mOrientation id="2">\n<double>0.0</double>\n<double>0.0</double>\n<double>-1.0</double>\n</mOrientation>\n</BulkSample>
#SPECTRUM    :
0,
0,
0,
0,
8,
57,
4210,
275945,
264,
4014,
1025,
2586,
1104,
1597,
3682,
6498,
15462,
64575,
6345,
4175,
3782,
4223,
4437,
4707,
5016,
5133,
5144,
5235,
5372,
5161,
4854,
4926,
5083,
4883,
4738,
4804,
5075,
4747,
6089,
82479,
283937,
38245,
23244,
8794,
2926,
2693,
2586,
2592,
2580,
2588,
2497,
2444,
2418,
2345,
2333,
2245,
2209,
2219,
2065,
2055,
2046,
1935,
1955,
1876,
1842,
1847,
1778,
1758,
1690,
1660,
1687,
1591,
1484,
1351,
1353,
1383,
1403,
1431,
1370,
1345,
1359,
1308,
1296,
1214,
1196,
1179,
1158,
1222,
1175,
1000,
1103,
1081,
1020,
1017,
1058,
1081,
1723,
10970,
34710,
25485,
4804,
1106,
977,
884,
864,
913,
1559,
4240,
4906,
2095,
844,
703,
691,
728,
704,
662,
635,
556,
595,
607,
603,
558,
563,
563,
563,
536,
535,
482,
511,
469,
468,
461,
451,
419,
438,
403,
436,
392,
414,
397,
408,
392,
365,
351,
369,
368,
356,
367,
332,
344,
310,
326,
305,
265,
322,
283,
265,
265,
266,
276,
246,
232,
265,
217,
218,
227,
237,
196,
185,
214,
178,
164,
158,
180,
150,
151,
169,
137,
154,
150,
159,
113,
136,
156,
153,
124,
112,
94,
107,
108,
107,
106,
92,
91,
82,
80,
79,
64,
53,
51,
45,
53,
51,
42,
53,
44,
39,
43,
29,
42,
25,
31,
20,
21,
31,
26,
11,
9,
10,
5,
2,
3,
0,
0,
0,
0,
0,
0,
0,
0,
0,
1,
0,
0,
0,
0,
1,
0,
2,
4,
0,
3,
0,
0,
0,
0,
0,
0,
0,
0,
1,
0,
0,
0,
0,
0,
1,
1,
0,
0,
0,
0,
0,
0,
3,
0,
0,
0,
0,
0,
0,
0,
0,
0,
0,
0,
0,
0,
0,
0,
0,
0,
1,
0,
0,
0,
0,
0,
0,
0,
2,
0,
0,
0,
#ENDOFDATA   :

File: Pyrite_1_G2_15kV10nA130kHz_129kHz_100s.msa
#FORMAT      : EMSA/MAS Spectral Data File
#VERSION     : 1.0
#TITLE       : Bruker Nano spectrum Acquisition
#DATE        : 23-AUG-2019
#TIME        : 00:05
#OWNER       : Bruker Nano
#NPOINTS     : 4096
#NCOLUMNS    : 1
#XUNITS      : eV
#YUNITS      : counts
#DATATYPE    : Y
#XPERCHAN    : 5.00257
#OFFSET      : -482.8305
#BEAMKV      : 15
#SIGNALTYPE  : EDS
#ELEVANGLE   : 40
#AZIMANGLE   : 45
#LIVETIME    : 100
#REALTIME    : 131.567
#PROBECUR    : 10
#TAUWIND     : 0
#TDEADLYR    : 0
#TACTLYR     : 0.045
#TALWIND     : 0.004
#CHOFFSET    : 0.0
#XLABEL      : Energy (eV)
#YLABEL      : Counts
#EDSDET      : SDUTW
##DET_HASH   : c6370f9e-cc72-7559-f57e-203d75c8942b
##CALIB_HASH : fcf71094-1a10-2882-685e-00197fff5925
##SAMPLE     : <BulkSample id="1">\n<mOrientation id="2">\n<double>0.0</double>\n<double>0.0</double>\n<double>-1.0</double>\n</mOrientation>\n</BulkSample>
#SPECTRUM    :
0,
0,
0,
0,
9,
39,
4238,
275247,
239,
4009,
1118,
2629,
1149,
1639,
3577,
6498,
15418,
64706,
6292,
4256,
3919,
4187,
4446,
4738,
4897,
5089,
5190,
5313,
5352,
5006,
4891,
4940,
5107,
4886,
4682,
4811,
5157,
4910,
6177,
82496,
283813,
37626,
23129,
8805,
2852,
2752,
2649,
2660,
2601,
2725,
2525,
2460,
2368,
2293,
2333,
2280,
2213,
2162,
2078,
2032,
2089,
1929,
1949,
1870,
1809,
1858,
1811,
1723,
1700,
1653,
1604,
1579,
1533,
1411,
1417,
1448,
1440,
1398,
1400,
1347,
1340,
1320,
1319,
1191,
1193,
1122,
1228,
1172,
1153,
1046,
1056,
1102,
1106,
1078,
1150,
1147,
1732,
11081,
34471,
25384,
4748,
1107,
920,
869,
853,
921,
1591,
4151,
4979,
2101,
828,
691,
635,
664,
735,
624,
628,
579,
573,
601,
615,
572,
569,
584,
578,
573,
537,
518,
504,
459,
464,
457,
449,
434,
429,
418,
445,
414,
389,
403,
391,
379,
358,
345,
379,
374,
344,
344,
323,
350,
321,
304,
291,
334,
321,
290,
316,
241,
259,
229,
224,
271,
250,
205,
268,
217,
227,
214,
189,
213,
196,
175,
182,
183,
204,
179,
153,
174,
145,
139,
136,
148,
139,
140,
138,
134,
118,
81,
88,
92,
81,
93,
103,
80,
80,
86,
68,
78,
72,
55,
61,
65,
41,
39,
52,
53,
47,
37,
30,
28,
26,
27,
23,
25,
8,
15,
11,
12,
10,
9,
4,
4,
2,
0,
0,
0,
0,
0,
0,
0,
1,
0,
0,
0,
0,
0,
0,
1,
0,
2,
1,
1,
1,
0,
0,
0,
0,
0,
0,
0,
0,
0,
1,
2,
0,
0,
0,
1,
2,
0,
0,
1,
0,
1,
0,
1,
1,
1,
0,
0,
0,
1,
0,
0,
0,
0,
0,
0,
0,
0,
0,
0,
0,
0,
0,
0,
0,
0,
1,
0,
1,
0,
1,
0,
#ENDOFDATA   :

File: Pyrite_1_G3_15kV10nA130kHz_129kHz_100s.msa
#FORMAT      : EMSA/MAS Spectral Data File
#VERSION     : 1.0
#TITLE       : Bruker Nano spectrum Acquisition
#DATE        : 23-AUG-2019
#TIME        : 00:08
#OWNER       : Bruker Nano
#NPOINTS     : 4096
#NCOLUMNS    : 1
#XUNITS      : eV
#YUNITS      : counts
#DATATYPE    : Y
#XPERCHAN    : 5.00257
#OFFSET      : -482.8305
#BEAMKV      : 15
#SIGNALTYPE  : EDS
#ELEVANGLE   : 40
#AZIMANGLE   : 45
#LIVETIME    : 100
#REALTIME    : 131.52
#PROBECUR    : 10
#TAUWIND     : 0
#TDEADLYR    : 0
#TACTLYR     : 0.045
#TALWIND     : 0.004
#CHOFFSET    : 0.0
#XLABEL      : Energy (eV)
#YLABEL      : Counts
#EDSDET      : SDUTW
##DET_HASH   : c6370f9e-cc72-7559-f57e-203d75c8942b
##CALIB_HASH : fcf71094-1a10-2882-685e-00197fff5925
##SAMPLE     : <BulkSample id="1">\n<mOrientation id="2">\n<double>0.0</double>\n<double>0.0</double>\n<double>-1.0</double>\n</mOrientation>\n</BulkSample>
#SPECTRUM    :
0,
0,
0,
0,
13,
52,
4298,
276071,
231,
4018,
1039,
2561,
1135,
1596,
3589,
6872,
15512,
65015,
6304,
4196,
3905,
4187,
4421,
4792,
4944,
5044,
5173,
5309,
5369,
5070,
4941,
4939,
5148,
4935,
4882,
4800,
4965,
4808,
6086,
82396,
283041,
37878,
23304,
8964,
2942,
2709,
2708,
2654,
2618,
2585,
2474,
2429,
2473,
2335,
2318,
2209,
2172,
2151,
2152,
2023,
2002,
1939,
1949,
1870,
1844,
1809,
1802,
1678,
1657,
1586,
1650,
1532,
1475,
1325,
1369,
1386,
1391,
1456,
1408,
1305,
1361,
1277,
1281,
1272,
1290,
1134,
1184,
1164,
1112,
1123,
1131,
1091,
1033,
1038,
1028,
1134,
1731,
10802,
34438,
25544,
4651,
1113,
908,
892,
971,
935,
1631,
4230,
4921,
2063,
829,
680,
691,
750,
706,
611,
639,
630,
639,
586,
565,
557,
558,
549,
546,
536,
549,
502,
514,
490,
472,
458,
451,
419,
451,
463,
438,
452,
405,
417,
419,
395,
353,
344,
337,
337,
363,
341,
316,
320,
304,
296,
304,
323,
301,
298,
303,
281,
274,
286,
276,
232,
254,
235,
232,
215,
242,
232,
212,
201,
197,
174,
206,
139,
176,
172,
159,
136,
154,
161,
144,
138,
126,
143,
123,
111,
112,
102,
107,
107,
102,
98,
105,
87,
89,
81,
81,
68,
68,
55,
70,
59,
54,
44,
44,
45,
40,
41,
31,
43,
26,
22,
22,
21,
20,
22,
14,
11,
17,
6,
4,
1,
0,
3,
0,
0,
0,
1,
0,
0,
1,
0,
0,
1,
0,
0,
0,
0,
1,
0,
0,
0,
2,
0,
0,
0,
0,
0,
0,
0,
0,
1,
1,
0,
0,
0,
0,
0,
2,
0,
1,
0,
0,
0,
1,
0,
0,
0,
0,
0,
0,
0,
0,
0,
0,
0,
0,
0,
0,
0,
1,
0,
0,
1,
1,
0,
1,
0,
0,
1,
0,
0,
0,
0,
#ENDOFDATA   :

File: Pyrite_1_H1_15kV10nA130kHz_39kHz_100s.msa
#FORMAT      : EMSA/MAS Spectral Data File
#VERSION     : 1.0
#TITLE       : Bruker Nano spectrum Acquisition
#DATE        : 23-AUG-2019
#TIME        : 00:12
#OWNER       : Bruker Nano
#NPOINTS     : 4096
#NCOLUMNS    : 1
#XUNITS      : eV
#YUNITS      : counts
#DATATYPE    : Y
#XPERCHAN    : 5.00257
#OFFSET      : -482.8305
#BEAMKV      : 15
#SIGNALTYPE  : EDS
#ELEVANGLE   : 40
#AZIMANGLE   : 45
#LIVETIME    : 100
#REALTIME    : 107.765
#PROBECUR    : 10
#TAUWIND     : 0
#TDEADLYR    : 0
#TACTLYR     : 0.045
#TALWIND     : 0.004
#CHOFFSET    : 0.0
#XLABEL      : Energy (eV)
#YLABEL      : Counts
#EDSDET      : SDUTW
##DET_HASH   : c6370f9e-cc72-7559-f57e-203d75c8942b
##CALIB_HASH : fcf71094-1a10-2882-685e-00197fff5925
##SAMPLE     : <BulkSample id="1">\n<mOrientation id="2">\n<double>0.0</double>\n<double>0.0</double>\n<double>-1.0</double>\n</mOrientation>\n</BulkSample>
#SPECTRUM    :
0,
0,
0,
0,
2,
3,
997,
69580,
13,
267,
301,
2431,
255,
250,
2360,
1128,
1082,
4569,
505,
417,
411,
409,
433,
424,
526,
581,
596,
643,
701,
636,
677,
718,
817,
820,
855,
930,
1055,
1040,
1410,
22151,
76746,
10100,
6287,
1992,
440,
443,
443,
483,
476,
495,
525,
505,
526,
555,
552,
577,
627,
614,
591,
620,
601,
648,
592,
607,
654,
692,
640,
702,
654,
674,
677,
688,
714,
653,
671,
680,
681,
719,
664,
681,
695,
732,
683,
698,
705,
709,
684,
665,
659,
681,
678,
630,
674,
681,
739,
714,
1207,
7778,
25319,
18404,
3442,
761,
619,
672,
664,
729,
1197,
3236,
3735,
1387,
429,
322,
362,
351,
340,
356,
356,
376,
342,
326,
368,
378,
373,
336,
368,
318,
320,
332,
341,
314,
316,
322,
317,
313,
316,
304,
299,
307,
296,
294,
304,
315,
262,
282,
278,
278,
252,
304,
230,
267,
283,
287,
231,
238,
243,
226,
209,
189,
218,
213,
206,
195,
222,
200,
203,
198,
200,
171,
160,
185,
158,
162,
163,
178,
145,
147,
153,
159,
128,
125,
112,
105,
122,
114,
120,
106,
105,
112,
96,
93,
87,
80,
86,
77,
72,
72,
67,
64,
60,
60,
47,
62,
55,
50,
37,
42,
31,
33,
34,
34,
26,
26,
31,
30,
13,
8,
17,
12,
9,
8,
7,
4,
3,
0,
0,
0,
0,
1,
0,
0,
1,
0,
0,
0,
0,
0,
0,
0,
0,
0,
0,
0,
1,
0,
0,
0,
1,
0,
0,
1,
0,
0,
0,
0,
0,
0,
0,
0,
0,
0,
0,
0,
0,
0,
0,
0,
1,
0,
0,
0,
1,
0,
2,
0,
1,
0,
0,
0,
0,
0,
1,
1,
0,
0,
1,
0,
1,
0,
0,
0,
0,
0,
0,
0,
#ENDOFDATA   :

File: Pyrite_1_H2_15kV10nA130kHz_33kHz_100s.msa
#FORMAT      : EMSA/MAS Spectral Data File
#VERSION     : 1.0
#TITLE       : Bruker Nano spectrum Acquisition
#DATE        : 23-AUG-2019
#TIME        : 00:15
#OWNER       : Bruker Nano
#NPOINTS     : 4096
#NCOLUMNS    : 1
#XUNITS      : eV
#YUNITS      : counts
#DATATYPE    : Y
#XPERCHAN    : 5.00257
#OFFSET      : -482.8305
#BEAMKV      : 15
#SIGNALTYPE  : EDS
#ELEVANGLE   : 40
#AZIMANGLE   : 45
#LIVETIME    : 100
#REALTIME    : 106.253
#PROBECUR    : 10
#TAUWIND     : 0
#TDEADLYR    : 0
#TACTLYR     : 0.045
#TALWIND     : 0.004
#CHOFFSET    : 0.0
#XLABEL      : Energy (eV)
#YLABEL      : Counts
#EDSDET      : SDUTW
##DET_HASH   : c6370f9e-cc72-7559-f57e-203d75c8942b
##CALIB_HASH : fcf71094-1a10-2882-685e-00197fff5925
##SAMPLE     : <BulkSample id="1">\n<mOrientation id="2">\n<double>0.0</double>\n<double>0.0</double>\n<double>-1.0</double>\n</mOrientation>\n</BulkSample>
#SPECTRUM    :
0,
0,
0,
0,
0,
3,
768,
55618,
11,
168,
267,
2140,
221,
242,
2691,
987,
742,
3372,
362,
333,
328,
266,
337,
358,
383,
449,
432,
465,
526,
529,
485,
562,
582,
616,
615,
737,
795,
789,
1072,
17338,
60954,
8074,
5084,
1550,
355,
333,
342,
364,
358,
408,
387,
421,
409,
405,
438,
441,
415,
447,
486,
482,
485,
504,
496,
486,
553,
528,
557,
532,
549,
572,
540,
585,
554,
526,
545,
575,
570,
574,
635,
604,
596,
627,
639,
584,
649,
639,
625,
630,
634,
604,
591,
620,
595,
620,
598,
663,
1105,
7082,
23108,
16967,
3114,
665,
575,
604,
621,
636,
1191,
3042,
3540,
1326,
385,
306,
306,
347,
315,
313,
292,
324,
307,
294,
300,
353,
328,
319,
312,
299,
291,
287,
301,
284,
273,
276,
277,
286,
265,
263,
282,
269,
249,
273,
241,
257,
267,
315,
252,
247,
259,
231,
235,
224,
250,
233,
232,
223,
213,
232,
214,
228,
210,
212,
204,
201,
191,
191,
188,
174,
177,
150,
156,
149,
152,
138,
129,
142,
126,
142,
127,
129,
112,
120,
120,
119,
97,
104,
118,
112,
106,
97,
89,
91,
84,
78,
87,
82,
68,
59,
64,
67,
64,
66,
64,
67,
55,
37,
51,
37,
30,
33,
31,
34,
27,
26,
24,
18,
22,
12,
22,
6,
12,
9,
8,
6,
4,
0,
0,
0,
0,
0,
0,
1,
0,
0,
0,
0,
0,
0,
0,
0,
0,
0,
0,
0,
0,
0,
3,
0,
0,
0,
0,
0,
1,
0,
0,
0,
0,
0,
0,
1,
1,
0,
0,
0,
0,
0,
0,
0,
0,
0,
2,
0,
0,
0,
0,
0,
0,
0,
0,
0,
0,
1,
0,
0,
0,
0,
0,
0,
0,
0,
0,
0,
0,
0,
0,
0,
#ENDOFDATA   :

File: Pyrite_1_H3_15kV10nA130kHz_31kHz_100s.msa
#FORMAT      : EMSA/MAS Spectral Data File
#VERSION     : 1.0
#TITLE       : Bruker Nano spectrum Acquisition
#DATE        : 23-AUG-2019
#TIME        : 00:17
#OWNER       : Bruker Nano
#NPOINTS     : 4096
#NCOLUMNS    : 1
#XUNITS      : eV
#YUNITS      : counts
#DATATYPE    : Y
#XPERCHAN    : 5.00257
#OFFSET      : -482.8305
#BEAMKV      : 15
#SIGNALTYPE  : EDS
#ELEVANGLE   : 40
#AZIMANGLE   : 45
#LIVETIME    : 100
#REALTIME    : 105.866
#PROBECUR    : 10
#TAUWIND     : 0
#TDEADLYR    : 0
#TACTLYR     : 0.045
#TALWIND     : 0.004
#CHOFFSET    : 0.0
#XLABEL      : Energy (eV)
#YLABEL      : Counts
#EDSDET      : SDUTW
##DET_HASH   : c6370f9e-cc72-7559-f57e-203d75c8942b
##CALIB_HASH : fcf71094-1a10-2882-685e-00197fff5925
##SAMPLE     : <BulkSample id="1">\n<mOrientation id="2">\n<double>0.0</double>\n<double>0.0</double>\n<double>-1.0</double>\n</mOrientation>\n</BulkSample>
#SPECTRUM    :
0,
0,
0,
0,
2,
4,
763,
52337,
7,
151,
236,
2148,
185,
193,
2035,
854,
661,
3158,
348,
301,
312,
315,
293,
332,
326,
396,
363,
408,
451,
429,
452,
503,
545,
522,
549,
619,
661,
689,
992,
15524,
54881,
7273,
4474,
1295,
285,
291,
301,
295,
300,
328,
335,
345,
346,
391,
357,
416,
411,
410,
375,
448,
471,
448,
442,
474,
499,
479,
491,
487,
529,
539,
540,
524,
540,
544,
548,
582,
555,
592,
609,
582,
585,
569,
598,
602,
560,
592,
606,
591,
603,
595,
599,
597,
606,
623,
627,
685,
1077,
7042,
23102,
17022,
3158,
701,
604,
617,
562,
675,
1115,
3037,
3597,
1308,
380,
297,
277,
317,
319,
304,
285,
270,
296,
272,
275,
311,
295,
295,
311,
288,
280,
296,
296,
283,
281,
279,
273,
270,
278,
266,
284,
264,
269,
261,
260,
253,
255,
255,
285,
253,
237,
230,
233,
253,
233,
206,
222,
228,
218,
193,
203,
193,
227,
209,
180,
223,
170,
187,
185,
178,
190,
165,
142,
156,
175,
154,
137,
137,
139,
127,
147,
135,
120,
117,
111,
122,
114,
111,
106,
117,
102,
98,
85,
84,
90,
82,
89,
80,
73,
78,
57,
66,
74,
49,
56,
55,
48,
57,
42,
46,
42,
36,
26,
28,
32,
18,
27,
17,
21,
15,
12,
16,
7,
7,
3,
2,
2,
1,
0,
0,
0,
0,
1,
0,
1,
0,
0,
1,
1,
0,
0,
0,
0,
0,
0,
0,
0,
0,
0,
2,
0,
0,
0,
0,
1,
0,
0,
0,
0,
2,
0,
0,
1,
0,
0,
0,
3,
1,
1,
0,
1,
1,
0,
0,
0,
2,
1,
0,
0,
0,
1,
0,
0,
0,
1,
0,
0,
0,
0,
0,
0,
1,
0,
0,
1,
0,
0,
0,
#ENDOFDATA   :