Folder: NeXLNotebooks/NeXLSpectrum/Pyrite fragments (part 5)

File: Pyrite_1_L3_15kV10nA130kHz_114kHz_100s.msa
#FORMAT      : EMSA/MAS Spectral Data File
#VERSION     : 1.0
#TITLE       : Bruker Nano spectrum Acquisition
#DATE        : 23-AUG-2019
#TIME        : 01:05
#OWNER       : Bruker Nano
#NPOINTS     : 4096
#NCOLUMNS    : 1
#XUNITS      : eV
#YUNITS      : counts
#DATATYPE    : Y
#XPERCHAN    : 5.00257
#OFFSET      : -482.8305
#BEAMKV      : 15
#SIGNALTYPE  : EDS
#ELEVANGLE   : 40
#AZIMANGLE   : 45
#LIVETIME    : 100
#REALTIME    : 127.097
#PROBECUR    : 10
#TAUWIND     : 0
#TDEADLYR    : 0
#TACTLYR     : 0.045
#TALWIND     : 0.004
#CHOFFSET    : 0.0
#XLABEL      : Energy (eV)
#YLABEL      : Counts
#EDSDET      : SDUTW
##DET_HASH   : c6370f9e-cc72-7559-f57e-203d75c8942b
##CALIB_HASH : fcf71094-1a10-2882-685e-00197fff5925
##SAMPLE     : <BulkSample id="1">\n<mOrientation id="2">\n<double>0.0</double>\n<double>0.0</double>\n<double>-1.0</double>\n</mOrientation>\n</BulkSample>
#SPECTRUM    :
0,
0,
0,
0,
6,
31,
3047,
205952,
167,
3587,
1521,
8257,
1058,
1462,
4408,
5731,
12245,
53266,
5205,
4207,
3365,
3417,
3612,
3818,
4030,
4047,
4353,
4415,
4413,
4290,
4064,
4091,
4164,
4174,
4039,
4172,
4315,
4249,
5440,
73322,
251884,
34110,
20541,
7875,
2531,
2360,
2278,
2247,
2277,
2194,
2143,
2100,
2108,
1997,
1949,
1955,
1978,
1871,
1879,
1850,
1816,
1693,
1800,
1645,
1753,
1532,
1574,
1529,
1514,
1494,
1533,
1396,
1358,
1211,
1231,
1289,
1248,
1263,
1211,
1230,
1231,
1171,
1135,
1130,
1081,
1139,
1118,
1036,
1027,
992,
1010,
950,
967,
953,
994,
1021,
1652,
10267,
32604,
23739,
4431,
1062,
846,
824,
798,
806,
1447,
3929,
4529,
1857,
793,
628,
616,
737,
721,
609,
603,
549,
535,
546,
592,
533,
540,
528,
523,
518,
512,
457,
473,
421,
440,
419,
447,
407,
385,
382,
381,
398,
389,
404,
395,
358,
365,
348,
338,
318,
296,
338,
338,
318,
318,
297,
299,
286,
285,
273,
250,
248,
245,
257,
233,
254,
198,
194,
225,
228,
194,
220,
203,
180,
206,
195,
164,
193,
178,
172,
170,
166,
157,
147,
132,
114,
117,
125,
123,
134,
129,
111,
94,
94,
90,
98,
78,
85,
82,
78,
76,
72,
69,
54,
61,
44,
51,
55,
35,
40,
31,
53,
17,
32,
33,
27,
27,
15,
17,
16,
15,
13,
11,
0,
9,
0,
0,
1,
0,
1,
0,
0,
0,
0,
0,
0,
0,
0,
0,
1,
0,
0,
3,
0,
0,
0,
0,
0,
0,
0,
0,
0,
2,
0,
0,
0,
0,
0,
0,
1,
0,
0,
3,
0,
0,
0,
0,
0,
1,
0,
1,
0,
0,
0,
0,
0,
0,
1,
0,
0,
0,
0,
0,
0,
0,
0,
0,
1,
0,
0,
0,
0,
0,
0,
0,
0,
0,
0,
#ENDOFDATA   :

File: Pyrite_1_M2_15kV10nA130kHz_129kHz_100s.msa
#FORMAT      : EMSA/MAS Spectral Data File
#VERSION     : 1.0
#TITLE       : Bruker Nano spectrum
#DATE        : 23-AUG-2019
#TIME        : 01:15
#OWNER       : Bruker Nano
#NPOINTS     : 4096
#NCOLUMNS    : 1
#XUNITS      : eV
#YUNITS      : counts
#DATATYPE    : Y
#XPERCHAN    : 5.00257
#OFFSET      : -482.8305
#BEAMKV      : 15
#SIGNALTYPE  : EDS
#ELEVANGLE   : 40
#AZIMANGLE   : 45
#LIVETIME    : 100
#REALTIME    : 131.808
#PROBECUR    : 10
#TAUWIND     : 0
#TDEADLYR    : 0
#TACTLYR     : 0.045
#TALWIND     : 0.004
#CHOFFSET    : 0.0
#XLABEL      : Energy (eV)
#YLABEL      : Counts
#EDSDET      : SDUTW
##DET_HASH   : c6370f9e-cc72-7559-f57e-203d75c8942b
##CALIB_HASH : fcf71094-1a10-2882-685e-00197fff5925
##SAMPLE     : <BulkSample id="1">\n<mOrientation id="2">\n<double>0.0</double>\n<double>0.0</double>\n<double>-1.0</double>\n</mOrientation>\n</BulkSample>
#SPECTRUM    :
0,
0,
0,
0,
10,
56,
4330,
275943,
236,
4103,
1100,
2605,
1198,
1644,
3671,
6656,
15370,
64892,
6302,
4242,
3927,
4246,
4544,
4716,
4918,
5242,
5280,
5291,
5406,
5216,
5010,
4986,
5070,
4965,
4676,
5034,
5068,
4845,
6196,
83127,
284377,
38171,
23354,
8878,
2882,
2761,
2692,
2653,
2720,
2633,
2553,
2428,
2417,
2337,
2226,
2274,
2271,
2109,
2109,
1969,
2061,
2026,
1897,
1884,
1808,
1847,
1750,
1753,
1687,
1683,
1615,
1629,
1513,
1388,
1378,
1421,
1394,
1448,
1382,
1424,
1384,
1259,
1275,
1252,
1284,
1192,
1241,
1182,
1180,
1115,
1138,
1033,
1006,
1085,
1061,
1073,
1698,
11200,
35009,
25433,
4867,
1151,
910,
911,
864,
978,
1663,
4276,
4921,
2072,
857,
669,
713,
725,
699,
651,
612,
563,
597,
602,
588,
596,
609,
571,
582,
532,
561,
504,
555,
478,
433,
469,
451,
429,
481,
476,
435,
441,
445,
389,
402,
398,
386,
365,
383,
375,
343,
387,
352,
318,
331,
309,
273,
306,
283,
312,
287,
261,
283,
261,
258,
250,
222,
231,
238,
219,
211,
198,
210,
209,
190,
199,
181,
200,
164,
162,
165,
155,
162,
162,
171,
135,
155,
143,
125,
113,
119,
122,
110,
103,
93,
91,
84,
81,
76,
80,
79,
69,
68,
62,
45,
49,
52,
45,
43,
45,
43,
45,
33,
42,
48,
25,
30,
17,
19,
8,
15,
12,
7,
7,
6,
4,
4,
1,
0,
0,
0,
0,
0,
0,
1,
0,
0,
0,
0,
0,
0,
0,
0,
0,
3,
2,
0,
0,
1,
0,
0,
0,
1,
0,
0,
1,
0,
1,
0,
0,
0,
0,
0,
0,
1,
0,
0,
0,
0,
0,
0,
0,
0,
0,
0,
0,
0,
0,
0,
0,
0,
0,
0,
0,
0,
1,
0,
0,
0,
1,
0,
0,
0,
0,
0,
1,
1,
0,
#ENDOFDATA   :