Folder: NeXLNotebooks/NeXLSpectrum/Pyrite fragments (part 2)

File: Pyrite_1_A3_15kV10nA130kHz_8kHz_100s.msa
#FORMAT      : EMSA/MAS Spectral Data File
#VERSION     : 1.0
#TITLE       : Bruker Nano spectrum Acquisition
#DATE        : 23-AUG-2019
#TIME        : 10:35
#OWNER       : Bruker Nano
#NPOINTS     : 4096
#NCOLUMNS    : 1
#XUNITS      : eV
#YUNITS      : counts
#DATATYPE    : Y
#XPERCHAN    : 5.00257
#OFFSET      : -482.8305
#BEAMKV      : 15
#SIGNALTYPE  : EDS
#ELEVANGLE   : 40
#AZIMANGLE   : 45
#LIVETIME    : 99.999
#REALTIME    : 101.247
#PROBECUR    : 10
#TAUWIND     : 0
#TDEADLYR    : 0
#TACTLYR     : 0.045
#TALWIND     : 0.004
#CHOFFSET    : 0.0
#XLABEL      : Energy (eV)
#YLABEL      : Counts
#EDSDET      : SDUTW
##DET_HASH   : c6370f9e-cc72-7559-f57e-203d75c8942b
##CALIB_HASH : fcf71094-1a10-2882-685e-00197fff5925
##SAMPLE     : <BulkSample id="1">\n<mOrientation id="2">\n<double>0.0</double>\n<double>0.0</double>\n<double>-1.0</double>\n</mOrientation>\n</BulkSample>
#SPECTRUM    :
0,
0,
0,
0,
0,
0,
164,
13670,
3,
157,
2825,
36837,
161,
103,
939,
370,
289,
1105,
274,
328,
247,
271,
268,
278,
257,
279,
261,
264,
282,
216,
220,
236,
237,
206,
188,
200,
196,
195,
221,
1246,
3873,
570,
430,
233,
142,
134,
125,
122,
123,
133,
94,
115,
90,
92,
107,
95,
102,
98,
92,
113,
108,
98,
81,
87,
79,
72,
75,
62,
68,
61,
60,
78,
66,
68,
55,
74,
47,
65,
58,
50,
56,
37,
41,
44,
48,
47,
45,
49,
46,
51,
37,
29,
36,
53,
51,
49,
76,
198,
503,
396,
97,
34,
30,
33,
33,
42,
44,
89,
103,
40,
23,
22,
28,
24,
36,
36,
19,
15,
14,
19,
15,
15,
31,
27,
19,
15,
20,
14,
14,
12,
16,
19,
16,
11,
15,
12,
15,
23,
7,
18,
10,
12,
15,
14,
8,
8,
11,
14,
8,
12,
13,
8,
11,
5,
7,
10,
10,
7,
5,
6,
6,
6,
8,
6,
7,
5,
3,
5,
5,
6,
9,
7,
6,
4,
3,
3,
4,
8,
5,
2,
6,
4,
3,
9,
2,
3,
4,
4,
3,
4,
0,
3,
5,
5,
3,
0,
4,
7,
2,
0,
3,
0,
2,
2,
2,
1,
4,
1,
0,
2,
1,
2,
0,
3,
0,
1,
1,
1,
0,
0,
0,
0,
0,
0,
0,
0,
0,
0,
0,
0,
0,
0,
0,
0,
0,
0,
0,
0,
0,
0,
0,
0,
0,
0,
0,
0,
0,
0,
0,
0,
0,
0,
0,
0,
0,
0,
0,
0,
0,
0,
0,
0,
0,
0,
0,
0,
0,
0,
0,
0,
0,
0,
0,
0,
0,
0,
0,
0,
0,
0,
0,
0,
0,
0,
0,
0,
0,
0,
0,
0,
0,
0,
0,
0,
#ENDOFDATA   :

File: Pyrite_1_B1_15kV10nA130kHz_133kHz_100s.msa
#FORMAT      : EMSA/MAS Spectral Data File
#VERSION     : 1.0
#TITLE       : Bruker Nano spectrum Acquisition
#DATE        : 23-AUG-2019
#TIME        : 10:37
#OWNER       : Bruker Nano
#NPOINTS     : 4096
#NCOLUMNS    : 1
#XUNITS      : eV
#YUNITS      : counts
#DATATYPE    : Y
#XPERCHAN    : 5.00257
#OFFSET      : -482.8305
#BEAMKV      : 15
#SIGNALTYPE  : EDS
#ELEVANGLE   : 40
#AZIMANGLE   : 45
#LIVETIME    : 100
#REALTIME    : 132.954
#PROBECUR    : 10
#TAUWIND     : 0
#TDEADLYR    : 0
#TACTLYR     : 0.045
#TALWIND     : 0.004
#CHOFFSET    : 0.0
#XLABEL      : Energy (eV)
#YLABEL      : Counts
#EDSDET      : SDUTW
##DET_HASH   : c6370f9e-cc72-7559-f57e-203d75c8942b
##CALIB_HASH : fcf71094-1a10-2882-685e-00197fff5925
##SAMPLE     : <BulkSample id="1">\n<mOrientation id="2">\n<double>0.0</double>\n<double>0.0</double>\n<double>-1.0</double>\n</mOrientation>\n</BulkSample>
#SPECTRUM    :
0,
0,
0,
0,
17,
61,
4215,
275095,
269,
4344,
1310,
2878,
1637,
2064,
7645,
7992,
16095,
68715,
6878,
4608,
4365,
4612,
4831,
5020,
5292,
5445,
5555,
5702,
5632,
5401,
5144,
5142,
5232,
5007,
4953,
4927,
5316,
4893,
6274,
84198,
288149,
38732,
23749,
9140,
3090,
2815,
2833,
2693,
2702,
2663,
2560,
2505,
2422,
2424,
2377,
2326,
2292,
2198,
2168,
2114,
2029,
2076,
2004,
1950,
1797,
1815,
1850,
1777,
1733,
1687,
1698,
1602,
1504,
1357,
1375,
1412,
1393,
1474,
1411,
1368,
1347,
1310,
1231,
1294,
1235,
1231,
1244,
1199,
1131,
1148,
1079,
1075,
1083,
1030,
1009,
1151,
1778,
11036,
35136,
25416,
4830,
1065,
921,
909,
875,
975,
1628,
4143,
4988,
2125,
852,
718,
668,
751,
745,
693,
602,
631,
643,
602,
602,
584,
614,
616,
587,
547,
550,
491,
481,
493,
462,
459,
444,
463,
447,
468,
457,
443,
391,
384,
395,
396,
392,
358,
422,
376,
393,
330,
350,
312,
324,
309,
294,
298,
282,
291,
275,
291,
296,
264,
285,
246,
241,
248,
188,
247,
211,
204,
201,
183,
179,
174,
177,
184,
160,
176,
154,
151,
147,
145,
122,
148,
131,
136,
125,
120,
112,
118,
117,
106,
98,
83,
115,
83,
87,
76,
84,
67,
60,
67,
57,
65,
58,
45,
54,
42,
36,
29,
32,
33,
21,
29,
24,
20,
18,
20,
8,
8,
16,
5,
9,
1,
0,
0,
0,
0,
0,
0,
0,
0,
0,
0,
0,
0,
4,
0,
1,
0,
0,
0,
0,
0,
0,
0,
0,
0,
0,
0,
0,
0,
0,
0,
0,
0,
0,
0,
0,
0,
0,
0,
0,
0,
0,
0,
0,
0,
0,
0,
0,
0,
0,
0,
0,
0,
0,
0,
0,
0,
0,
0,
0,
0,
0,
0,
0,
0,
0,
0,
1,
0,
1,
0,
0,
0,
#ENDOFDATA   :

File: Pyrite_1_B2_15kV10nA130kHz_133kHz_100s.msa
#FORMAT      : EMSA/MAS Spectral Data File
#VERSION     : 1.0
#TITLE       : Bruker Nano spectrum Acquisition
#DATE        : 23-AUG-2019
#TIME        : 10:40
#OWNER       : Bruker Nano
#NPOINTS     : 4096
#NCOLUMNS    : 1
#XUNITS      : eV
#YUNITS      : counts
#DATATYPE    : Y
#XPERCHAN    : 5.00257
#OFFSET      : -482.8305
#BEAMKV      : 15
#SIGNALTYPE  : EDS
#ELEVANGLE   : 40
#AZIMANGLE   : 45
#LIVETIME    : 100
#REALTIME    : 133.183
#PROBECUR    : 10
#TAUWIND     : 0
#TDEADLYR    : 0
#TACTLYR     : 0.045
#TALWIND     : 0.004
#CHOFFSET    : 0.0
#XLABEL      : Energy (eV)
#YLABEL      : Counts
#EDSDET      : SDUTW
##DET_HASH   : c6370f9e-cc72-7559-f57e-203d75c8942b
##CALIB_HASH : fcf71094-1a10-2882-685e-00197fff5925
##SAMPLE     : <BulkSample id="1">\n<mOrientation id="2">\n<double>0.0</double>\n<double>0.0</double>\n<double>-1.0</double>\n</mOrientation>\n</BulkSample>
#SPECTRUM    :
0,
0,
0,
0,
13,
54,
4231,
274549,
266,
4612,
1233,
2941,
1546,
2053,
6840,
7869,
16501,
69791,
7066,
4775,
4456,
4760,
4880,
5090,
5360,
5534,
5522,
5667,
5622,
5366,
5110,
5204,
5299,
5073,
4836,
5059,
5217,
5008,
6441,
84339,
289389,
39134,
23827,
9098,
2987,
2846,
2819,
2739,
2721,
2680,
2511,
2468,
2522,
2390,
2350,
2306,
2325,
2114,
2102,
2113,
2028,
2056,
1880,
1872,
1916,
1875,
1853,
1730,
1735,
1693,
1661,
1671,
1478,
1337,
1356,
1421,
1377,
1456,
1471,
1386,
1297,
1269,
1298,
1209,
1268,
1279,
1147,
1184,
1166,
1142,
1112,
1053,
1096,
1040,
988,
1096,
1790,
10939,
35065,
25671,
4851,
1174,
907,
954,
925,
947,
1626,
4176,
4959,
2098,
845,
756,
681,
745,
763,
619,
628,
642,
580,
576,
596,
590,
581,
570,
585,
537,
540,
496,
480,
490,
460,
480,
478,
467,
486,
449,
439,
466,
389,
439,
369,
364,
394,
426,
396,
347,
375,
420,
328,
323,
345,
334,
352,
358,
308,
287,
262,
327,
306,
246,
216,
270,
240,
246,
216,
232,
196,
196,
209,
230,
197,
186,
178,
176,
178,
156,
158,
152,
163,
151,
152,
139,
146,
141,
133,
119,
95,
96,
111,
96,
86,
94,
84,
82,
87,
79,
72,
64,
68,
54,
62,
53,
53,
39,
38,
35,
42,
42,
42,
30,
29,
32,
30,
19,
15,
8,
15,
8,
13,
8,
10,
2,
0,
0,
0,
0,
0,
3,
0,
0,
0,
0,
0,
0,
0,
0,
0,
0,
0,
0,
0,
0,
2,
0,
0,
0,
0,
0,
0,
1,
0,
0,
0,
1,
0,
1,
1,
0,
0,
0,
0,
0,
1,
1,
0,
0,
0,
0,
0,
0,
0,
0,
0,
0,
0,
0,
0,
0,
0,
0,
0,
0,
0,
1,
0,
0,
1,
0,
0,
0,
0,
0,
0,
0,
#ENDOFDATA   :

File: Pyrite_1_B3_15kV10nA130kHz_133kHz_100s.msa
#FORMAT      : EMSA/MAS Spectral Data File
#VERSION     : 1.0
#TITLE       : Bruker Nano spectrum Acquisition
#DATE        : 23-AUG-2019
#TIME        : 10:43
#OWNER       : Bruker Nano
#NPOINTS     : 4096
#NCOLUMNS    : 1
#XUNITS      : eV
#YUNITS      : counts
#DATATYPE    : Y
#XPERCHAN    : 5.00257
#OFFSET      : -482.8305
#BEAMKV      : 15
#SIGNALTYPE  : EDS
#ELEVANGLE   : 40
#AZIMANGLE   : 45
#LIVETIME    : 100
#REALTIME    : 133.101
#PROBECUR    : 10
#TAUWIND     : 0
#TDEADLYR    : 0
#TACTLYR     : 0.045
#TALWIND     : 0.004
#CHOFFSET    : 0.0
#XLABEL      : Energy (eV)
#YLABEL      : Counts
#EDSDET      : SDUTW
##DET_HASH   : c6370f9e-cc72-7559-f57e-203d75c8942b
##CALIB_HASH : fcf71094-1a10-2882-685e-00197fff5925
##SAMPLE     : <BulkSample id="1">\n<mOrientation id="2">\n<double>0.0</double>\n<double>0.0</double>\n<double>-1.0</double>\n</mOrientation>\n</BulkSample>
#SPECTRUM    :
0,
0,
0,
0,
9,
54,
4312,
275269,
253,
4452,
1294,
2878,
1614,
2048,
7455,
7572,
16438,
68511,
6902,
4685,
4376,
4792,
4880,
5044,
5269,
5587,
5558,
5611,
5720,
5392,
5201,
5334,
5180,
5140,
4923,
5060,
5244,
4942,
6319,
84361,
290160,
39461,
23837,
9059,
3071,
2900,
2766,
2750,
2641,
2672,
2576,
2529,
2415,
2420,
2433,
2257,
2258,
2164,
2140,
2090,
2050,
2023,
1963,
1896,
1849,
1914,
1770,
1776,
1714,
1627,
1679,
1547,
1528,
1380,
1406,
1443,
1436,
1416,
1400,
1380,
1395,
1333,
1301,
1286,
1298,
1187,
1231,
1178,
1069,
1093,
1100,
1030,
1102,
1089,
1080,
1094,
1736,
11188,
35221,
25607,
4857,
1127,
894,
905,
905,
960,
1591,
4234,
4968,
2122,
842,
676,
710,
796,
700,
655,
586,
602,
622,
596,
591,
592,
582,
571,
527,
543,
539,
515,
469,
476,
456,
472,
467,
458,
468,
466,
434,
407,
428,
381,
408,
403,
389,
372,
368,
374,
358,
367,
313,
333,
344,
310,
305,
297,
272,
304,
277,
253,
250,
262,
252,
239,
266,
270,
232,
183,
219,
204,
205,
234,
220,
187,
195,
162,
190,
143,
160,
160,
149,
142,
128,
141,
134,
122,
117,
133,
121,
108,
99,
111,
97,
93,
89,
72,
76,
87,
62,
86,
61,
50,
44,
41,
67,
40,
37,
33,
50,
37,
22,
29,
36,
26,
31,
13,
16,
11,
12,
8,
10,
0,
5,
0,
0,
0,
2,
0,
0,
0,
0,
0,
0,
0,
0,
0,
0,
3,
0,
0,
0,
0,
0,
0,
0,
1,
1,
1,
0,
1,
0,
0,
0,
0,
1,
2,
2,
0,
0,
0,
1,
0,
0,
0,
0,
0,
0,
0,
0,
1,
0,
0,
0,
0,
0,
0,
0,
0,
0,
0,
0,
0,
0,
0,
0,
0,
0,
0,
0,
1,
0,
0,
2,
0,
0,
0,
#ENDOFDATA   :

File: Pyrite_1_C1_15kV10nA130kHz_86kHz_100s.msa
#FORMAT      : EMSA/MAS Spectral Data File
#VERSION     : 1.0
#TITLE       : Bruker Nano spectrum Acquisition
#DATE        : 23-AUG-2019
#TIME        : 10:46
#OWNER       : Bruker Nano
#NPOINTS     : 4096
#NCOLUMNS    : 1
#XUNITS      : eV
#YUNITS      : counts
#DATATYPE    : Y
#XPERCHAN    : 5.00257
#OFFSET      : -482.8305
#BEAMKV      : 15
#SIGNALTYPE  : EDS
#ELEVANGLE   : 40
#AZIMANGLE   : 45
#LIVETIME    : 100
#REALTIME    : 119.038
#PROBECUR    : 10
#TAUWIND     : 0
#TDEADLYR    : 0
#TACTLYR     : 0.045
#TALWIND     : 0.004
#CHOFFSET    : 0.0
#XLABEL      : Energy (eV)
#YLABEL      : Counts
#EDSDET      : SDUTW
##DET_HASH   : c6370f9e-cc72-7559-f57e-203d75c8942b
##CALIB_HASH : fcf71094-1a10-2882-685e-00197fff5925
##SAMPLE     : <BulkSample id="1">\n<mOrientation id="2">\n<double>0.0</double>\n<double>0.0</double>\n<double>-1.0</double>\n</mOrientation>\n</BulkSample>
#SPECTRUM    :
0,
0,
0,
0,
4,
24,
2376,
165701,
68,
775,
699,
4319,
692,
776,
4907,
2954,
4070,
17844,
1754,
1545,
1315,
1364,
1601,
1576,
1809,
2029,
2051,
2221,
2317,
2369,
2328,
2547,
2734,
2689,
2656,
2854,
3002,
3198,
4068,
58183,
201422,
26624,
16438,
5498,
1523,
1449,
1524,
1520,
1491,
1515,
1496,
1559,
1531,
1536,
1532,
1533,
1538,
1540,
1520,
1554,
1496,
1483,
1467,
1470,
1453,
1369,
1446,
1410,
1369,
1340,
1374,
1288,
1265,
1148,
1134,
1236,
1190,
1226,
1208,
1223,
1143,
1141,
1173,
1085,
1109,
1029,
1020,
1113,
994,
965,
1044,
1005,
977,
1023,
994,
1002,
1538,
10385,
32593,
23401,
4379,
1000,
871,
837,
857,
874,
1498,
4015,
4670,
1860,
703,
560,
574,
670,
641,
562,
566,
525,
525,
530,
516,
541,
529,
452,
500,
523,
458,
495,
460,
474,
438,
440,
434,
409,
453,
404,
404,
434,
389,
382,
354,
357,
358,
340,
330,
328,
342,
327,
327,
289,
298,
286,
313,
296,
256,
287,
237,
253,
243,
262,
235,
262,
203,
226,
221,
202,
218,
224,
210,
197,
212,
176,
186,
173,
156,
154,
185,
163,
112,
139,
98,
137,
119,
120,
126,
110,
129,
116,
95,
99,
99,
82,
85,
92,
73,
70,
54,
64,
63,
60,
71,
55,
41,
41,
38,
37,
37,
37,
29,
30,
25,
29,
22,
22,
25,
19,
9,
18,
7,
6,
0,
2,
1,
4,
0,
0,
0,
0,
0,
0,
0,
0,
2,
0,
0,
0,
0,
0,
1,
0,
0,
0,
0,
0,
1,
0,
0,
0,
0,
0,
1,
1,
0,
0,
0,
0,
0,
1,
1,
2,
0,
0,
0,
0,
0,
0,
0,
0,
0,
0,
0,
0,
0,
0,
0,
0,
0,
0,
1,
0,
0,
0,
0,
1,
1,
0,
0,
0,
0,
0,
0,
0,
0,
0,
#ENDOFDATA   :

File: Pyrite_1_C2_15kV10nA130kHz_86kHz_100s.msa
#FORMAT      : EMSA/MAS Spectral Data File
#VERSION     : 1.0
#TITLE       : Bruker Nano spectrum Acquisition
#DATE        : 23-AUG-2019
#TIME        : 10:49
#OWNER       : Bruker Nano
#NPOINTS     : 4096
#NCOLUMNS    : 1
#XUNITS      : eV
#YUNITS      : counts
#DATATYPE    : Y
#XPERCHAN    : 5.00257
#OFFSET      : -482.8305
#BEAMKV      : 15
#SIGNALTYPE  : EDS
#ELEVANGLE   : 40
#AZIMANGLE   : 45
#LIVETIME    : 100
#REALTIME    : 119.114
#PROBECUR    : 10
#TAUWIND     : 0
#TDEADLYR    : 0
#TACTLYR     : 0.045
#TALWIND     : 0.004
#CHOFFSET    : 0.0
#XLABEL      : Energy (eV)
#YLABEL      : Counts
#EDSDET      : SDUTW
##DET_HASH   : c6370f9e-cc72-7559-f57e-203d75c8942b
##CALIB_HASH : fcf71094-1a10-2882-685e-00197fff5925
##SAMPLE     : <BulkSample id="1">\n<mOrientation id="2">\n<double>0.0</double>\n<double>0.0</double>\n<double>-1.0</double>\n</mOrientation>\n</BulkSample>
#SPECTRUM    :
0,
0,
0,
0,
2,
18,
2494,
165492,
58,
874,
713,
4557,
673,
706,
4504,
3085,
4296,
18424,
1732,
1313,
1252,
1390,
1525,
1613,
1773,
1968,
2117,
2224,
2408,
2351,
2346,
2525,
2688,
2661,
2773,
2943,
3221,
3078,
4044,
58285,
202335,
26873,
16182,
5581,
1572,
1495,
1420,
1510,
1497,
1544,
1541,
1578,
1526,
1509,
1547,
1523,
1449,
1595,
1539,
1504,
1520,
1432,
1496,
1411,
1397,
1399,
1440,
1338,
1404,
1313,
1322,
1355,
1237,
1121,
1130,
1175,
1218,
1242,
1234,
1143,
1184,
1130,
1119,
1049,
1108,
1072,
1079,
977,
1005,
1012,
964,
1015,
1017,
959,
953,
1000,
1586,
10151,
32139,
23769,
4513,
972,
893,
810,
855,
866,
1435,
4121,
4577,
1822,
708,
599,
581,
586,
600,
567,
561,
552,
560,
562,
539,
486,
544,
461,
548,
497,
507,
460,
470,
426,
408,
430,
415,
415,
428,
447,
373,
401,
378,
377,
387,
363,
367,
353,
366,
354,
345,
330,
303,
312,
318,
298,
258,
275,
294,
263,
240,
273,
253,
222,
243,
233,
228,
251,
245,
229,
203,
211,
197,
194,
189,
185,
161,
158,
175,
147,
165,
156,
123,
162,
122,
130,
131,
129,
157,
131,
98,
121,
100,
104,
105,
83,
86,
83,
73,
81,
77,
76,
58,
50,
61,
52,
43,
62,
46,
39,
34,
29,
28,
35,
38,
28,
13,
12,
15,
17,
10,
5,
14,
10,
7,
3,
3,
0,
0,
2,
0,
0,
0,
0,
0,
1,
3,
0,
0,
0,
0,
0,
0,
0,
0,
0,
0,
0,
0,
0,
0,
0,
0,
0,
0,
0,
0,
0,
0,
2,
0,
0,
0,
0,
0,
0,
0,
0,
0,
0,
0,
0,
0,
0,
0,
0,
0,
0,
0,
0,
0,
0,
0,
0,
0,
0,
1,
0,
0,
0,
0,
0,
0,
0,
0,
0,
0,
0,
#ENDOFDATA   :

File: Pyrite_1_C3_15kV10nA130kHz_86kHz_100s.msa
#FORMAT      : EMSA/MAS Spectral Data File
#VERSION     : 1.0
#TITLE       : Bruker Nano spectrum Acquisition
#DATE        : 23-AUG-2019
#TIME        : 10:51
#OWNER       : Bruker Nano
#NPOINTS     : 4096
#NCOLUMNS    : 1
#XUNITS      : eV
#YUNITS      : counts
#DATATYPE    : Y
#XPERCHAN    : 5.00257
#OFFSET      : -482.8305
#BEAMKV      : 15
#SIGNALTYPE  : EDS
#ELEVANGLE   : 40
#AZIMANGLE   : 45
#LIVETIME    : 100
#REALTIME    : 119.117
#PROBECUR    : 10
#TAUWIND     : 0
#TDEADLYR    : 0
#TACTLYR     : 0.045
#TALWIND     : 0.004
#CHOFFSET    : 0.0
#XLABEL      : Energy (eV)
#YLABEL      : Counts
#EDSDET      : SDUTW
##DET_HASH   : c6370f9e-cc72-7559-f57e-203d75c8942b
##CALIB_HASH : fcf71094-1a10-2882-685e-00197fff5925
##SAMPLE     : <BulkSample id="1">\n<mOrientation id="2">\n<double>0.0</double>\n<double>0.0</double>\n<double>-1.0</double>\n</mOrientation>\n</BulkSample>
#SPECTRUM    :
0,
0,
0,
0,
2,
20,
2450,
165995,
69,
873,
684,
4170,
480,
627,
4040,
2803,
4381,
18591,
1718,
1251,
1284,
1399,
1567,
1581,
1838,
2059,
2000,
2161,
2449,
2412,
2388,
2524,
2676,
2620,
2868,
3002,
3046,
3094,
4099,
58314,
202619,
26891,
16417,
5590,
1567,
1435,
1479,
1473,
1512,
1467,
1506,
1567,
1510,
1544,
1494,
1577,
1513,
1590,
1514,
1546,
1518,
1419,
1443,
1441,
1437,
1379,
1393,
1399,
1383,
1358,
1350,
1310,
1297,
1165,
1212,
1215,
1233,
1210,
1168,
1199,
1181,
1147,
1154,
1106,
1155,
1091,
1086,
1048,
985,
1016,
949,
955,
945,
992,
905,
997,
1548,
10151,
32499,
23678,
4328,
1020,
829,
843,
840,
927,
1464,
3970,
4655,
1920,
755,
620,
595,
633,
555,
599,
527,
558,
523,
555,
540,
534,
527,
540,
475,
464,
466,
473,
466,
440,
444,
428,
391,
403,
430,
386,
386,
370,
393,
390,
384,
351,
371,
354,
346,
327,
326,
328,
309,
323,
270,
303,
253,
284,
284,
278,
272,
268,
268,
267,
216,
241,
233,
256,
218,
237,
184,
237,
179,
169,
207,
175,
167,
165,
160,
147,
179,
158,
155,
164,
145,
127,
106,
141,
127,
105,
102,
101,
87,
88,
92,
86,
86,
95,
85,
71,
67,
63,
69,
68,
52,
52,
53,
47,
36,
31,
46,
28,
43,
26,
38,
32,
27,
20,
18,
16,
9,
16,
4,
8,
11,
1,
0,
0,
0,
0,
0,
0,
0,
0,
1,
2,
0,
0,
0,
0,
0,
0,
1,
0,
0,
0,
0,
0,
0,
0,
0,
0,
0,
1,
0,
0,
0,
0,
0,
0,
0,
0,
1,
0,
0,
0,
0,
0,
0,
0,
0,
0,
0,
0,
0,
0,
0,
0,
0,
0,
0,
0,
0,
0,
0,
1,
0,
0,
0,
0,
1,
0,
0,
1,
0,
0,
1,
0,
#ENDOFDATA   :

File: Pyrite_1_D1_15kV10nA130kHz_116kHz_100s.msa
#FORMAT      : EMSA/MAS Spectral Data File
#VERSION     : 1.0
#TITLE       : Bruker Nano spectrum Acquisition
#DATE        : 23-AUG-2019
#TIME        : 10:55
#OWNER       : Bruker Nano
#NPOINTS     : 4096
#NCOLUMNS    : 1
#XUNITS      : eV
#YUNITS      : counts
#DATATYPE    : Y
#XPERCHAN    : 5.00257
#OFFSET      : -482.8305
#BEAMKV      : 15
#SIGNALTYPE  : EDS
#ELEVANGLE   : 40
#AZIMANGLE   : 45
#LIVETIME    : 100
#REALTIME    : 127.679
#PROBECUR    : 10
#TAUWIND     : 0
#TDEADLYR    : 0
#TACTLYR     : 0.045
#TALWIND     : 0.004
#CHOFFSET    : 0.0
#XLABEL      : Energy (eV)
#YLABEL      : Counts
#EDSDET      : SDUTW
##DET_HASH   : c6370f9e-cc72-7559-f57e-203d75c8942b
##CALIB_HASH : fcf71094-1a10-2882-685e-00197fff5925
##SAMPLE     : <BulkSample id="1">\n<mOrientation id="2">\n<double>0.0</double>\n<double>0.0</double>\n<double>-1.0</double>\n</mOrientation>\n</BulkSample>
#SPECTRUM    :
0,
0,
0,
0,
9,
46,
3058,
207720,
165,
3529,
1590,
8745,
1177,
1478,
4645,
5672,
12245,
53488,
5269,
3423,
3365,
3501,
3688,
3970,
4192,
4373,
4277,
4488,
4617,
4353,
4105,
4258,
4415,
4296,
4228,
4343,
4475,
4326,
5492,
74648,
256092,
34561,
21284,
7965,
2608,
2363,
2365,
2287,
2247,
2263,
2246,
2147,
2156,
2133,
2048,
2061,
1932,
1950,
1874,
1859,
1828,
1811,
1739,
1700,
1679,
1705,
1617,
1595,
1491,
1552,
1446,
1429,
1369,
1251,
1274,
1310,
1301,
1335,
1286,
1227,
1195,
1193,
1125,
1201,
1121,
1124,
1073,
1098,
1030,
1021,
1021,
1057,
941,
978,
1011,
993,
1647,
10418,
33299,
24226,
4520,
1055,
871,
838,
880,
893,
1524,
3894,
4630,
1984,
796,
643,
657,
645,
659,
638,
572,
544,
598,
521,
523,
515,
568,
532,
501,
534,
468,
510,
498,
465,
422,
456,
421,
415,
412,
418,
415,
414,
416,
357,
355,
366,
355,
374,
360,
363,
309,
305,
316,
306,
287,
295,
294,
287,
284,
260,
264,
269,
272,
272,
265,
215,
245,
222,
201,
221,
212,
210,
204,
196,
195,
174,
169,
174,
163,
163,
140,
153,
174,
139,
150,
134,
139,
114,
108,
107,
110,
118,
90,
91,
96,
92,
94,
70,
83,
78,
81,
63,
62,
83,
73,
39,
53,
47,
40,
49,
43,
40,
27,
20,
31,
30,
23,
16,
16,
17,
16,
11,
10,
3,
5,
6,
0,
0,
1,
0,
0,
0,
0,
0,
0,
0,
2,
0,
0,
0,
0,
0,
0,
0,
0,
0,
0,
0,
0,
0,
1,
0,
1,
0,
0,
0,
0,
0,
0,
0,
0,
0,
1,
0,
0,
0,
0,
0,
0,
0,
0,
0,
0,
1,
0,
0,
0,
0,
0,
0,
0,
0,
0,
0,
0,
1,
1,
1,
1,
0,
1,
0,
0,
0,
0,
0,
0,
0,
#ENDOFDATA   :

File: Pyrite_1_D2_15kV10nA130kHz_116kHz_100s.msa
#FORMAT      : EMSA/MAS Spectral Data File
#VERSION     : 1.0
#TITLE       : Bruker Nano spectrum Acquisition
#DATE        : 23-AUG-2019
#TIME        : 10:58
#OWNER       : Bruker Nano
#NPOINTS     : 4096
#NCOLUMNS    : 1
#XUNITS      : eV
#YUNITS      : counts
#DATATYPE    : Y
#XPERCHAN    : 5.00257
#OFFSET      : -482.8305
#BEAMKV      : 15
#SIGNALTYPE  : EDS
#ELEVANGLE   : 40
#AZIMANGLE   : 45
#LIVETIME    : 100
#REALTIME    : 127.721
#PROBECUR    : 10
#TAUWIND     : 0
#TDEADLYR    : 0
#TACTLYR     : 0.045
#TALWIND     : 0.004
#CHOFFSET    : 0.0
#XLABEL      : Energy (eV)
#YLABEL      : Counts
#EDSDET      : SDUTW
##DET_HASH   : c6370f9e-cc72-7559-f57e-203d75c8942b
##CALIB_HASH : fcf71094-1a10-2882-685e-00197fff5925
##SAMPLE     : <BulkSample id="1">\n<mOrientation id="2">\n<double>0.0</double>\n<double>0.0</double>\n<double>-1.0</double>\n</mOrientation>\n</BulkSample>
#SPECTRUM    :
0,
0,
0,
0,
12,
32,
3086,
207606,
164,
3487,
1583,
8789,
1152,
1517,
4500,
5787,
12327,
53404,
5235,
3453,
3355,
3496,
3769,
3948,
4189,
4292,
4484,
4422,
4518,
4363,
4242,
4200,
4375,
4216,
4170,
4289,
4415,
4293,
5488,
75056,
257015,
34557,
21037,
7999,
2593,
2346,
2327,
2273,
2299,
2265,
2214,
2191,
2066,
2088,
2059,
2028,
1965,
2019,
1913,
1860,
1861,
1795,
1778,
1719,
1705,
1655,
1637,
1577,
1554,
1523,
1511,
1459,
1378,
1264,
1324,
1329,
1299,
1327,
1304,
1264,
1240,
1227,
1150,
1138,
1169,
1172,
1117,
1095,
1053,
1003,
1024,
1002,
1008,
976,
990,
988,
1660,
10441,
32924,
24116,
4530,
973,
880,
858,
783,
906,
1487,
3943,
4723,
1949,
780,
655,
596,
650,
667,
596,
569,
563,
595,
552,
518,
570,
555,
527,
508,
524,
486,
458,
452,
449,
434,
427,
421,
435,
420,
456,
419,
448,
414,
360,
360,
365,
358,
357,
338,
358,
315,
364,
351,
303,
321,
287,
272,
297,
277,
262,
264,
251,
253,
252,
262,
242,
217,
222,
196,
182,
238,
191,
188,
177,
202,
202,
177,
159,
158,
178,
155,
160,
142,
131,
134,
154,
109,
99,
124,
137,
93,
95,
93,
105,
93,
95,
84,
83,
77,
80,
79,
59,
52,
65,
52,
53,
42,
48,
48,
56,
37,
37,
35,
26,
26,
27,
19,
12,
10,
12,
16,
9,
11,
8,
2,
4,
2,
0,
0,
1,
0,
1,
0,
0,
0,
0,
3,
0,
2,
0,
0,
0,
0,
0,
0,
0,
0,
0,
0,
0,
0,
0,
1,
0,
0,
0,
0,
0,
1,
0,
1,
0,
0,
0,
0,
0,
0,
0,
0,
0,
0,
0,
0,
0,
0,
0,
0,
0,
0,
0,
0,
0,
1,
0,
0,
0,
0,
1,
0,
0,
0,
0,
0,
1,
0,
0,
1,
0,
#ENDOFDATA   :

File: Pyrite_1_D3_15kV10nA130kHz_116kHz_100s.msa
#FORMAT      : EMSA/MAS Spectral Data File
#VERSION     : 1.0
#TITLE       : Bruker Nano spectrum Acquisition
#DATE        : 23-AUG-2019
#TIME        : 11:00
#OWNER       : Bruker Nano
#NPOINTS     : 4096
#NCOLUMNS    : 1
#XUNITS      : eV
#YUNITS      : counts
#DATATYPE    : Y
#XPERCHAN    : 5.00257
#OFFSET      : -482.8305
#BEAMKV      : 15
#SIGNALTYPE  : EDS
#ELEVANGLE   : 40
#AZIMANGLE   : 45
#LIVETIME    : 100
#REALTIME    : 127.574
#PROBECUR    : 10
#TAUWIND     : 0
#TDEADLYR    : 0
#TACTLYR     : 0.045
#TALWIND     : 0.004
#CHOFFSET    : 0.0
#XLABEL      : Energy (eV)
#YLABEL      : Counts
#EDSDET      : SDUTW
##DET_HASH   : c6370f9e-cc72-7559-f57e-203d75c8942b
##CALIB_HASH : fcf71094-1a10-2882-685e-00197fff5925
##SAMPLE     : <BulkSample id="1">\n<mOrientation id="2">\n<double>0.0</double>\n<double>0.0</double>\n<double>-1.0</double>\n</mOrientation>\n</BulkSample>
#SPECTRUM    :
0,
0,
0,
0,
9,
44,
3216,
206551,
163,
3509,
1604,
9215,
1168,
1519,
4702,
5905,
12374,
53563,
5242,
3480,
3275,
3473,
3709,
3851,
4077,
4380,
4383,
4420,
4558,
4391,
4234,
4310,
4414,
4192,
4129,
4358,
4481,
4277,
5510,
74095,
256324,
34120,
21001,
7922,
2622,
2413,
2339,
2334,
2298,
2263,
2202,
2123,
2139,
2066,
2119,
1933,
1916,
1950,
1934,
1868,
1793,
1793,
1782,
1723,
1709,
1606,
1592,
1579,
1514,
1543,
1453,
1462,
1370,
1262,
1278,
1330,
1274,
1296,
1270,
1244,
1173,
1237,
1136,
1105,
1155,
1112,
1088,
1140,
981,
1040,
1053,
1062,
1030,
941,
938,
1003,
1571,
10385,
33193,
24017,
4511,
1051,
882,
781,
833,
882,
1492,
3893,
4700,
1919,
788,
647,
600,
645,
652,
603,
611,
562,
599,
547,
584,
555,
544,
533,
531,
509,
511,
490,
498,
432,
418,
424,
392,
374,
428,
412,
408,
396,
388,
417,
371,
371,
341,
358,
349,
338,
332,
313,
272,
304,
300,
310,
317,
289,
307,
290,
266,
262,
250,
253,
243,
245,
219,
209,
217,
194,
212,
240,
189,
206,
199,
159,
182,
167,
148,
159,
139,
161,
141,
150,
133,
133,
111,
109,
133,
109,
124,
100,
96,
92,
96,
91,
91,
92,
85,
74,
66,
68,
53,
64,
71,
46,
54,
61,
41,
39,
42,
40,
29,
33,
22,
26,
26,
26,
14,
12,
11,
14,
12,
9,
6,
1,
1,
0,
0,
0,
0,
0,
2,
0,
0,
0,
0,
0,
0,
0,
0,
2,
0,
0,
0,
0,
0,
0,
0,
1,
0,
0,
0,
0,
0,
0,
0,
1,
0,
0,
0,
0,
0,
0,
0,
0,
0,
0,
0,
0,
0,
0,
0,
0,
0,
0,
0,
0,
0,
0,
0,
0,
0,
0,
0,
0,
0,
1,
0,
0,
0,
0,
1,
0,
1,
1,
0,
0,
#ENDOFDATA   :

File: Pyrite_1_E1_15kV10nA130kHz_95kHz_100s.msa
#FORMAT      : EMSA/MAS Spectral Data File
#VERSION     : 1.0
#TITLE       : Bruker Nano spectrum Acquisition
#DATE        : 23-AUG-2019
#TIME        : 11:05
#OWNER       : Bruker Nano
#NPOINTS     : 4096
#NCOLUMNS    : 1
#XUNITS      : eV
#YUNITS      : counts
#DATATYPE    : Y
#XPERCHAN    : 5.00257
#OFFSET      : -482.8305
#BEAMKV      : 15
#SIGNALTYPE  : EDS
#ELEVANGLE   : 40
#AZIMANGLE   : 45
#LIVETIME    : 100
#REALTIME    : 121.686
#PROBECUR    : 10
#TAUWIND     : 0
#TDEADLYR    : 0
#TACTLYR     : 0.045
#TALWIND     : 0.004
#CHOFFSET    : 0.0
#XLABEL      : Energy (eV)
#YLABEL      : Counts
#EDSDET      : SDUTW
##DET_HASH   : c6370f9e-cc72-7559-f57e-203d75c8942b
##CALIB_HASH : fcf71094-1a10-2882-685e-00197fff5925
##SAMPLE     : <BulkSample id="1">\n<mOrientation id="2">\n<double>0.0</double>\n<double>0.0</double>\n<double>-1.0</double>\n</mOrientation>\n</BulkSample>
#SPECTRUM    :
0,
0,
0,
0,
4,
32,
2531,
166141,
96,
1374,
1223,
9147,
988,
1129,
6955,
4082,
5924,
26259,
2630,
1698,
1858,
1902,
2164,
2266,
2500,
2620,
2815,
2973,
3093,
3022,
2995,
3103,
3221,
3147,
3200,
3503,
3473,
3415,
4550,
63155,
219484,
29371,
17760,
6329,
1969,
1811,
1766,
1784,
1770,
1784,
1764,
1769,
1765,
1726,
1718,
1718,
1722,
1700,
1634,
1612,
1644,
1638,
1570,
1516,
1533,
1509,
1493,
1429,
1453,
1389,
1362,
1387,
1291,
1178,
1217,
1276,
1246,
1279,
1174,
1233,
1215,
1106,
1066,
1129,
1130,
1116,
1109,
1062,
1072,
989,
1023,
1019,
965,
926,
931,
1014,
1602,
10052,
31719,
23561,
4340,
1019,
852,
799,
795,
882,
1440,
4023,
4557,
1876,
698,
625,
630,
621,
602,
613,
521,
539,
545,
537,
521,
537,
526,
507,
535,
489,
463,
470,
473,
453,
443,
432,
416,
420,
422,
392,
442,
405,
420,
401,
348,
344,
341,
347,
314,
335,
313,
316,
302,
329,
277,
277,
272,
280,
285,
277,
274,
236,
256,
239,
225,
218,
261,
219,
206,
223,
201,
181,
222,
196,
195,
183,
152,
190,
163,
154,
140,
142,
135,
132,
139,
120,
114,
127,
131,
107,
108,
116,
80,
89,
89,
92,
83,
80,
75,
74,
69,
68,
71,
51,
53,
52,
71,
42,
39,
40,
42,
20,
38,
28,
28,
32,
26,
23,
14,
11,
16,
14,
6,
3,
1,
0,
0,
0,
0,
0,
0,
0,
0,
0,
0,
3,
0,
0,
0,
0,
0,
0,
0,
1,
0,
0,
0,
0,
0,
0,
0,
0,
0,
0,
0,
1,
0,
0,
0,
0,
0,
0,
0,
0,
1,
0,
0,
0,
0,
0,
0,
0,
0,
0,
0,
0,
1,
0,
0,
0,
0,
1,
1,
0,
0,
0,
0,
1,
0,
0,
1,
1,
0,
0,
0,
0,
0,
0,
#ENDOFDATA   :