Folder: NeXLNotebooks/NeXLParticle/Zeppelin/Standards (part 2)

File: O std.msa
#FORMAT      : EMSA/MAS Spectral Data File
#VERSION     : 1.0
#TITLE       : MgO std
#DATE        : 11-OCT-2018
#TIME        : 00:18
#OWNER       : Unknown
#NPOINTS     : 4096
#NCOLUMNS    : 1
#XUNITS      : eV
#YUNITS      : counts
#DATATYPE    : Y
#XPERCHAN    : 9.99856
#OFFSET      : 1.63032
#BEAMKV      : 20
#SIGNALTYPE  : EDS
#ELEVANGLE   : 35
#AZIMANGLE   : 0
#LIVETIME    : 1161.48
#REALTIME    : 1492.12
#PROBECUR    : 0.9748
#TDEADLYR    : 0
#TACTLYR     : 0.045
#TALWIND     : 0.003
#CHOFFSET    : 0.0
#XLABEL      : Energy (eV)
#YLABEL      : Counts
#EDSDET      : SDUTW
##SPECIMEN   : MgO std
##D2STDCMP   : MgO,(O:39.6964),(Mg:60.3036),5.0
##DET_HASH   : 97086dfe-e5c2-9c77-3984-1d0b14bbbf41
##CALIB_HASH : 1a36e884-c26d-3547-51b1-d0bb2efdf95a
##WORKING    : 17.0 mm
##SAMPLE     : <BulkSample id="1">\n<mOrientation id="2">\n<double>0.0</double>\n<double>0.0</double>\n<double>-1.0</double>\n</mOrientation>\n</BulkSample>
#SPECTRUM    :
200298,
138,
14579,
18908,
274530,
11356,
15950,
24739,
50788,
3542980,
13093,
11183,
12284,
16460,
12693,
13463,
13777,
14015,
23225,
13878,
13505,
13048,
12864,
12329,
11508,
11336,
11491,
10646,
10185,
9751,
9344,
8893,
8579,
8219,
8009,
7557,
7284,
6981,
6954,
6596,
6198,
5909,
5713,
5551,
5272,
5277,
5384,
4752,
4660,
4411,
4326,
4151,
3916,
3912,
3804,
3566,
3436,
3225,
3214,
3121,
2992,
2898,
2788,
2674,
2675,
2527,
2466,
2344,
2200,
2142,
2123,
1992,
2016,
1863,
1915,
1815,
1669,
1673,
1567,
1437,
1475,
1388,
1339,
1307,
1213,
1164,
1101,
1093,
985,
954,
959,
881,
768,
773,
782,
732,
756,
670,
604,
579,
565,
520,
514,
450,
417,
420,
412,
382,
380,
348,
303,
291,
287,
255,
220,
227,
224,
179,
177,
175,
141,
134,
130,
117,
97,
95,
90,
79,
66,
64,
60,
64,
46,
42,
30,
33,
25,
19,
16,
6,
12,
2,
0,
0,
0,
0,
1,
0,
0,
0,
0,
0,
0,
0,
2,
0,
0,
0,
0,
0,
0,
0,
0,
0,
0,
0,
0,
0,
0,
0,
0,
0,
0,
0,
0,
0,
0,
0,
0,
0,
0,
0,
0,
0,
0,
0,
0,
0,
0,
0,
0,
0,
0,
0,
0,
0,
0,
0,
0,
0,
0,
0,
0,
0,
0,
0,
0,
0,
0,
0,
0,
0,
0,
0,
0,
0,
0,
0,
0,
0,
0,
0,
0,
0,
0,
0,
0,
0,
0,
0,
0,
0,
0,
0,
0,
0,
0,
0,
0,
0,
0,
0,
0,
0,
0,
0,
0,
0,
0,
0,
0,
0,
0,
0,
0,
0,
0,
0,
0,
0,
0,
0,
0,
0,
0,
0,
0,
0,
0,
0,
0,
0,
0,
0,
0,
0,
0,
0,
0,
0,
0,
0,
0,
0,
0,
0,
0,
0,
0,
0,
0,
0,
0,
0,
#ENDOFDATA   :

File: S std.msa
#FORMAT      : EMSA/MAS Spectral Data File
#VERSION     : 1.0
#TITLE       : FeS2 std
#DATE        : 11-OCT-2018
#TIME        : 00:31
#OWNER       : Unknown
#NPOINTS     : 4096
#NCOLUMNS    : 1
#XUNITS      : eV
#YUNITS      : counts
#DATATYPE    : Y
#XPERCHAN    : 9.99856
#OFFSET      : 1.63032
#BEAMKV      : 20
#SIGNALTYPE  : EDS
#ELEVANGLE   : 35
#AZIMANGLE   : 0
#LIVETIME    : 1160.73
#REALTIME    : 1580.69
#PROBECUR    : 0.97334
#TDEADLYR    : 0
#TACTLYR     : 0.045
#TALWIND     : 0.003
#CHOFFSET    : 0.0
#XLABEL      : Energy (eV)
#YLABEL      : Counts
#EDSDET      : SDUTW
##SPECIMEN   : FeS2 std
##D2STDCMP   : FeS2,(S:53.4528),(Fe:46.5472),5.0
##DET_HASH   : 97086dfe-e5c2-9c77-3984-1d0b14bbbf41
##CALIB_HASH : 1a36e884-c26d-3547-51b1-d0bb2efdf95a
##WORKING    : 17.0 mm
##SAMPLE     : <BulkSample id="1">\n<mOrientation id="2">\n<double>0.0</double>\n<double>0.0</double>\n<double>-1.0</double>\n</mOrientation>\n</BulkSample>
#SPECTRUM    :
197408,
270,
14106,
10437,
90054,
301849,
17723,
20549,
25418,
29362,
33196,
35371,
35588,
37950,
38143,
41136,
584277,
567838,
97380,
19771,
20663,
21154,
20757,
20343,
19907,
19459,
19537,
19060,
18333,
17944,
17415,
17036,
16631,
23108,
16742,
15194,
14613,
14082,
14263,
14290,
12958,
12603,
12355,
12011,
13036,
121158,
425478,
15798,
10499,
11267,
52811,
34415,
7849,
7906,
7628,
7289,
7038,
6919,
6777,
6481,
6360,
6226,
7969,
6635,
5746,
5389,
5468,
5545,
5154,
4897,
4711,
4512,
4589,
4041,
4195,
4096,
3959,
3705,
3689,
3526,
3376,
3370,
3198,
3196,
2991,
2754,
2675,
2665,
2422,
2489,
2416,
2379,
2150,
1969,
1991,
1871,
1826,
1758,
1673,
1547,
1538,
1367,
1324,
1205,
1228,
1186,
1083,
1054,
956,
917,
883,
801,
748,
755,
669,
644,
564,
548,
530,
435,
457,
387,
370,
345,
337,
310,
270,
261,
210,
203,
176,
161,
140,
132,
88,
97,
83,
61,
52,
49,
40,
24,
15,
7,
4,
3,
4,
1,
3,
3,
3,
2,
1,
1,
1,
0,
0,
2,
0,
2,
1,
1,
1,
0,
0,
1,
1,
0,
2,
0,
0,
0,
1,
0,
0,
0,
0,
0,
0,
0,
0,
0,
1,
0,
0,
0,
1,
0,
2,
0,
0,
0,
0,
0,
0,
0,
0,
0,
0,
1,
0,
0,
0,
0,
0,
0,
0,
0,
0,
0,
0,
0,
0,
0,
0,
0,
0,
0,
0,
0,
0,
0,
0,
0,
0,
0,
0,
0,
0,
0,
0,
0,
0,
0,
0,
0,
0,
0,
0,
0,
0,
0,
0,
0,
0,
0,
0,
0,
0,
0,
0,
0,
0,
0,
0,
0,
0,
0,
0,
0,
0,
0,
0,
0,
0,
0,
0,
0,
0,
0,
0,
0,
0,
0,
0,
0,
0,
0,
0,
0,
0,
0,
0,
0,
0,
0,
0,
0,
0,
0,
0,
0,
0,
0,
#ENDOFDATA   :

File: Sb std.msa
#FORMAT      : EMSA/MAS Spectral Data File
#VERSION     : 1.0
#TITLE       : Sb std
#DATE        : 15-OCT-2018
#TIME        : 00:28
#OWNER       : Unknown
#NPOINTS     : 4096
#NCOLUMNS    : 1
#XUNITS      : eV
#YUNITS      : counts
#DATATYPE    : Y
#XPERCHAN    : 9.99856
#OFFSET      : 1.63032
#BEAMKV      : 20
#SIGNALTYPE  : EDS
#ELEVANGLE   : 35
#AZIMANGLE   : 0
#LIVETIME    : 1171.54
#REALTIME    : 1628.26
#PROBECUR    : 0.98858
#TDEADLYR    : 0
#TACTLYR     : 0.045
#TALWIND     : 0.003
#CHOFFSET    : 0.0
#XLABEL      : Energy (eV)
#YLABEL      : Counts
#EDSDET      : SDUTW
##SPECIMEN   : Sb std
##D2STDCMP   : Sb,(Sb:100.0),5.0
##DET_HASH   : 97086dfe-e5c2-9c77-3984-1d0b14bbbf41
##CALIB_HASH : 1a36e884-c26d-3547-51b1-d0bb2efdf95a
##WORKING    : 17.0 mm
##SAMPLE     : <BulkSample id="1">\n<mOrientation id="2">\n<double>0.0</double>\n<double>0.0</double>\n<double>-1.0</double>\n</mOrientation>\n</BulkSample>
#SPECTRUM    :
148418,
495,
32868,
154971,
29693,
26122,
23658,
25215,
30479,
35751,
40545,
44626,
46035,
57950,
49336,
57709,
52148,
53619,
51798,
52450,
51002,
51083,
52575,
94273,
53894,
148688,
1159102,
255061,
416839,
163594,
66971,
87146,
31242,
50703,
24818,
23380,
23213,
23265,
23265,
23958,
22525,
22404,
22059,
21967,
21353,
21499,
23142,
20509,
19999,
19427,
19222,
19356,
19050,
19419,
18360,
18023,
16822,
16515,
15954,
15662,
15017,
15024,
14444,
14082,
13695,
13521,
13153,
12792,
12398,
12290,
11692,
11513,
11295,
10897,
10456,
10697,
10197,
9731,
9451,
9065,
8910,
8753,
8191,
8083,
7770,
7636,
7528,
7116,
6877,
6507,
6697,
6239,
5906,
5758,
5425,
5340,
5106,
4811,
4721,
4494,
4238,
4140,
3959,
3685,
3552,
3503,
3332,
3146,
2931,
2779,
2543,
2591,
2479,
2339,
2202,
2043,
2012,
1812,
1772,
1532,
1444,
1396,
1359,
1179,
1165,
1077,
1020,
851,
819,
742,
713,
619,
536,
450,
447,
423,
347,
286,
222,
208,
140,
96,
79,
36,
13,
7,
13,
7,
10,
9,
7,
14,
10,
8,
3,
11,
7,
3,
4,
5,
4,
1,
3,
7,
1,
4,
1,
3,
0,
1,
2,
0,
2,
1,
1,
3,
0,
0,
0,
2,
0,
1,
2,
0,
0,
0,
1,
0,
0,
0,
0,
1,
0,
1,
0,
0,
0,
0,
0,
0,
0,
0,
0,
0,
0,
0,
0,
0,
0,
0,
0,
0,
0,
0,
0,
0,
0,
0,
0,
0,
0,
0,
0,
0,
0,
0,
0,
0,
0,
0,
1,
0,
0,
0,
0,
0,
0,
0,
0,
0,
0,
0,
0,
0,
0,
0,
0,
0,
0,
0,
0,
0,
0,
0,
0,
0,
0,
0,
0,
0,
0,
0,
0,
0,
0,
0,
0,
0,
0,
0,
0,
0,
0,
0,
0,
0,
0,
0,
0,
0,
0,
0,
0,
0,
0,
0,
0,
0,
0,
0,
0,
0,
0,
0,
#ENDOFDATA   :

File: Ti std.msa
#FORMAT      : EMSA/MAS Spectral Data File
#VERSION     : 1.0
#TITLE       : Ti std
#DATE        : 11-OCT-2018
#TIME        : 01:48
#OWNER       : Unknown
#NPOINTS     : 4096
#NCOLUMNS    : 1
#XUNITS      : eV
#YUNITS      : counts
#DATATYPE    : Y
#XPERCHAN    : 9.99856
#OFFSET      : 1.63032
#BEAMKV      : 20
#SIGNALTYPE  : EDS
#ELEVANGLE   : 35
#AZIMANGLE   : 0
#LIVETIME    : 1160.26
#REALTIME    : 1570.97
#PROBECUR    : 0.9752
#TDEADLYR    : 0
#TACTLYR     : 0.045
#TALWIND     : 0.003
#CHOFFSET    : 0.0
#XLABEL      : Energy (eV)
#YLABEL      : Counts
#EDSDET      : SDUTW
##SPECIMEN   : Ti std
##D2STDCMP   : Ti,(Ti:100.0),5.0
##DET_HASH   : 97086dfe-e5c2-9c77-3984-1d0b14bbbf41
##CALIB_HASH : 1a36e884-c26d-3547-51b1-d0bb2efdf95a
##WORKING    : 17.0 mm
##SAMPLE     : <BulkSample id="1">\n<mOrientation id="2">\n<double>0.0</double>\n<double>0.0</double>\n<double>-1.0</double>\n</mOrientation>\n</BulkSample>
#SPECTRUM    :
190333,
157,
19034,
177567,
14346,
10060,
13969,
18903,
24112,
28341,
31621,
34469,
35033,
37155,
35200,
35602,
35372,
34994,
33949,
34665,
46327,
31099,
30243,
30522,
28051,
27156,
26402,
25684,
25398,
23404,
24031,
39275,
1952905,
265950,
26331,
257213,
52207,
11303,
11460,
11463,
11038,
10791,
10639,
10715,
10187,
10025,
10595,
9658,
9539,
9139,
9175,
8726,
8509,
8488,
8058,
7845,
7687,
7549,
7259,
7133,
7009,
6806,
6495,
6456,
8988,
8537,
6030,
6295,
6160,
5370,
5255,
5017,
4890,
4735,
4507,
4556,
4401,
4083,
3907,
3826,
3719,
3659,
3380,
3313,
3220,
3171,
2990,
2940,
2743,
2651,
2609,
2478,
2315,
2250,
2163,
1990,
1957,
1835,
1818,
1669,
1643,
1562,
1484,
1434,
1332,
1245,
1277,
1137,
1091,
1006,
911,
898,
869,
795,
757,
705,
660,
587,
563,
539,
517,
463,
459,
406,
389,
373,
308,
261,
267,
244,
190,
175,
178,
142,
133,
112,
99,
72,
54,
52,
29,
35,
15,
10,
5,
5,
5,
3,
6,
5,
2,
4,
3,
2,
0,
2,
0,
2,
2,
3,
2,
2,
2,
2,
1,
2,
1,
2,
1,
0,
0,
0,
0,
1,
0,
0,
1,
0,
0,
0,
0,
0,
0,
0,
0,
0,
0,
0,
0,
0,
1,
0,
0,
0,
0,
0,
0,
0,
0,
0,
0,
0,
0,
0,
0,
1,
0,
0,
0,
0,
0,
0,
0,
0,
0,
0,
0,
0,
0,
0,
0,
0,
0,
0,
0,
0,
0,
0,
0,
0,
0,
0,
0,
0,
0,
0,
0,
0,
0,
0,
1,
0,
0,
0,
0,
0,
0,
0,
0,
0,
0,
0,
0,
0,
0,
0,
0,
0,
0,
0,
0,
0,
0,
0,
0,
0,
0,
0,
0,
0,
0,
0,
0,
0,
0,
0,
0,
0,
0,
0,
0,
0,
0,
0,
0,
0,
0,
0,
0,
0,
0,
0,
0,
0,
#ENDOFDATA   :

File: V std.msa
#FORMAT      : EMSA/MAS Spectral Data File
#VERSION     : 1.0
#TITLE       : V std
#DATE        : 11-OCT-2018
#TIME        : 01:41
#OWNER       : Unknown
#NPOINTS     : 4096
#NCOLUMNS    : 1
#XUNITS      : eV
#YUNITS      : counts
#DATATYPE    : Y
#XPERCHAN    : 9.99856
#OFFSET      : 1.63032
#BEAMKV      : 20
#SIGNALTYPE  : EDS
#ELEVANGLE   : 35
#AZIMANGLE   : 0
#LIVETIME    : 1161.73
#REALTIME    : 1557.45
#PROBECUR    : 0.97515
#TDEADLYR    : 0
#TACTLYR     : 0.045
#TALWIND     : 0.003
#CHOFFSET    : 0.0
#XLABEL      : Energy (eV)
#YLABEL      : Counts
#EDSDET      : SDUTW
##SPECIMEN   : V std
##D2STDCMP   : V,(V:100.0),5.0
##DET_HASH   : 97086dfe-e5c2-9c77-3984-1d0b14bbbf41
##CALIB_HASH : 1a36e884-c26d-3547-51b1-d0bb2efdf95a
##WORKING    : 17.0 mm
##SAMPLE     : <BulkSample id="1">\n<mOrientation id="2">\n<double>0.0</double>\n<double>0.0</double>\n<double>-1.0</double>\n</mOrientation>\n</BulkSample>
#SPECTRUM    :
190543,
135,
17361,
183022,
45427,
9276,
12569,
17716,
22797,
27073,
29794,
32977,
33948,
36047,
34604,
34931,
35304,
35206,
33973,
33276,
32362,
31324,
30861,
43029,
28970,
27466,
27509,
25838,
24806,
24243,
23791,
22896,
21831,
21940,
29864,
1220746,
530314,
21113,
58041,
231493,
13673,
10699,
10919,
10617,
10189,
10403,
10685,
9924,
9743,
9439,
9318,
9059,
8947,
8673,
8422,
8255,
7999,
7771,
7726,
7316,
7288,
7120,
6879,
6581,
6406,
6254,
6020,
5812,
5851,
5661,
6338,
8358,
5336,
5047,
5537,
5098,
4544,
4348,
4187,
4077,
4032,
3785,
3588,
3483,
3428,
3341,
3098,
3021,
2901,
2817,
2777,
2664,
2535,
2387,
2288,
2134,
2077,
1917,
1898,
1876,
1672,
1646,
1569,
1467,
1381,
1378,
1251,
1248,
1161,
1076,
1067,
934,
905,
842,
786,
769,
714,
626,
634,
542,
564,
508,
463,
430,
397,
374,
361,
299,
293,
246,
200,
182,
190,
167,
126,
89,
102,
85,
67,
58,
28,
27,
23,
7,
5,
3,
6,
3,
3,
3,
3,
3,
0,
3,
4,
3,
2,
1,
4,
0,
1,
1,
3,
0,
2,
0,
0,
2,
1,
3,
0,
0,
2,
0,
0,
0,
0,
0,
1,
0,
0,
0,
1,
0,
0,
0,
0,
0,
0,
0,
0,
0,
0,
1,
0,
0,
0,
0,
0,
0,
0,
0,
0,
0,
0,
0,
0,
0,
0,
0,
0,
0,
0,
0,
0,
0,
0,
0,
0,
0,
0,
0,
0,
0,
0,
0,
1,
0,
0,
0,
0,
0,
0,
0,
0,
0,
0,
0,
0,
0,
0,
0,
0,
0,
0,
0,
0,
0,
0,
0,
0,
0,
0,
0,
0,
0,
0,
0,
0,
0,
0,
0,
0,
0,
0,
0,
0,
0,
0,
0,
0,
0,
0,
0,
0,
0,
0,
0,
0,
0,
0,
0,
0,
0,
0,
0,
0,
0,
0,
0,
0,
0,
0,
0,
#ENDOFDATA   :

File: W std.msa
#FORMAT      : EMSA/MAS Spectral Data File
#VERSION     : 1.0
#TITLE       : W std
#DATE        : 11-OCT-2018
#TIME        : 01:14
#OWNER       : Unknown
#NPOINTS     : 4096
#NCOLUMNS    : 1
#XUNITS      : eV
#YUNITS      : counts
#DATATYPE    : Y
#XPERCHAN    : 9.99856
#OFFSET      : 1.63032
#BEAMKV      : 20
#SIGNALTYPE  : EDS
#ELEVANGLE   : 35
#AZIMANGLE   : 0
#LIVETIME    : 1123.9
#REALTIME    : 1695.37
#PROBECUR    : 0.97513
#TDEADLYR    : 0
#TACTLYR     : 0.045
#TALWIND     : 0.003
#CHOFFSET    : 0.0
#XLABEL      : Energy (eV)
#YLABEL      : Counts
#EDSDET      : SDUTW
##SPECIMEN   : W std
##D2STDCMP   : W,(W:100.0),5.0
##DET_HASH   : 97086dfe-e5c2-9c77-3984-1d0b14bbbf41
##CALIB_HASH : 1a36e884-c26d-3547-51b1-d0bb2efdf95a
##WORKING    : 17.0 mm
##SAMPLE     : <BulkSample id="1">\n<mOrientation id="2">\n<double>0.0</double>\n<double>0.0</double>\n<double>-1.0</double>\n</mOrientation>\n</BulkSample>
#SPECTRUM    :
190813,
217,
24513,
15325,
25394,
35213,
45624,
57682,
66975,
75394,
208026,
83898,
167649,
1755568,
48046,
43746,
37833,
39389,
33848,
34076,
35481,
35147,
36716,
37197,
37299,
39614,
41223,
38176,
37955,
37967,
37544,
37456,
36919,
36315,
35371,
35253,
34760,
33987,
33890,
34563,
32150,
31467,
31101,
30458,
29646,
29931,
32474,
28215,
27448,
26673,
26461,
25357,
28025,
36749,
24500,
23333,
22852,
22417,
23053,
63098,
285937,
46487,
22117,
19836,
18642,
18189,
18060,
18829,
37162,
110854,
49552,
63631,
27867,
16976,
13595,
13071,
12759,
12019,
12405,
11949,
19352,
22310,
12550,
14426,
11413,
9604,
9755,
8987,
8623,
8220,
8248,
7810,
7651,
7243,
7017,
6604,
6425,
6204,
5880,
5861,
5610,
5339,
5160,
4801,
4695,
4594,
4396,
4205,
4004,
3777,
3511,
3495,
3186,
3171,
3021,
2803,
2575,
2369,
2380,
2169,
2150,
1979,
1948,
1757,
1617,
1514,
1439,
1346,
1236,
1082,
1041,
974,
782,
708,
679,
613,
540,
448,
356,
301,
282,
212,
129,
57,
29,
18,
23,
19,
20,
13,
17,
21,
16,
12,
15,
9,
18,
7,
11,
6,
11,
4,
7,
3,
4,
5,
8,
5,
6,
3,
4,
6,
5,
3,
5,
5,
3,
4,
2,
3,
0,
2,
2,
2,
0,
1,
2,
2,
1,
2,
4,
2,
1,
1,
1,
0,
0,
0,
1,
1,
0,
0,
1,
0,
2,
0,
0,
0,
0,
1,
0,
0,
0,
1,
0,
0,
1,
0,
0,
0,
0,
0,
0,
0,
0,
0,
0,
0,
0,
0,
0,
0,
0,
0,
0,
0,
0,
0,
1,
0,
0,
0,
0,
0,
0,
0,
0,
0,
0,
0,
0,
0,
0,
0,
0,
0,
0,
0,
0,
0,
0,
0,
0,
0,
0,
0,
0,
0,
0,
0,
0,
0,
0,
0,
0,
0,
0,
0,
0,
0,
0,
0,
0,
0,
0,
0,
0,
0,
0,
0,
0,
0,
0,
0,
#ENDOFDATA   :