Folder: NeXLNotebooks/NeXLParticle/Zeppelin/Standards

File: Ag std.msa
#FORMAT      : EMSA/MAS Spectral Data File
#VERSION     : 1.0
#TITLE       : Ag std
#DATE        : 15-OCT-2018
#TIME        : 10:33
#OWNER       : Unknown
#NPOINTS     : 4096
#NCOLUMNS    : 1
#XUNITS      : eV
#YUNITS      : counts
#DATATYPE    : Y
#XPERCHAN    : 9.99856
#OFFSET      : 1.63032
#BEAMKV      : 20
#SIGNALTYPE  : EDS
#ELEVANGLE   : 35
#AZIMANGLE   : 0
#LIVETIME    : 921.028
#REALTIME    : 1282.59
#PROBECUR    : 0.98647
#TDEADLYR    : 0
#TACTLYR     : 0.045
#TALWIND     : 0.003
#CHOFFSET    : 0.0
#XLABEL      : Energy (eV)
#YLABEL      : Counts
#EDSDET      : SDUTW
##SPECIMEN   : Ag std
##D2STDCMP   : Ag,(Ag:100.0),5.0
##DET_HASH   : 97086dfe-e5c2-9c77-3984-1d0b14bbbf41
##CALIB_HASH : 1a36e884-c26d-3547-51b1-d0bb2efdf95a
##WORKING    : 17.0 mm
##SAMPLE     : <BulkSample id="1">\n<mOrientation id="2">\n<double>0.0</double>\n<double>0.0</double>\n<double>-1.0</double>\n</mOrientation>\n</BulkSample>
#SPECTRUM    :
114171,
261,
54891,
10720,
18327,
17283,
17481,
22288,
27705,
50036,
43823,
42024,
39895,
42722,
40807,
42855,
57872,
48584,
45977,
98936,
62679,
744040,
315604,
342279,
161649,
58367,
23065,
30813,
20866,
19356,
20138,
19659,
19630,
19156,
19468,
19107,
18962,
18509,
18593,
18288,
18023,
17709,
17711,
18512,
18532,
17355,
17157,
15804,
15246,
14759,
14491,
14027,
13383,
13647,
13267,
12948,
12594,
12340,
11872,
11944,
11171,
11287,
10802,
10645,
10307,
10068,
10015,
9548,
9258,
8893,
8635,
9180,
8551,
8048,
8025,
7827,
7603,
7141,
6975,
6691,
6623,
6195,
6158,
5927,
5847,
5905,
5514,
5058,
4994,
4627,
4844,
4499,
4180,
4139,
3942,
3765,
3617,
3578,
3283,
3229,
3096,
2916,
2807,
2655,
2613,
2495,
2353,
2094,
2082,
2068,
1876,
1840,
1719,
1576,
1493,
1453,
1326,
1299,
1165,
1076,
1020,
964,
877,
855,
731,
724,
653,
625,
540,
532,
422,
435,
382,
318,
288,
253,
212,
206,
148,
119,
93,
62,
37,
24,
9,
7,
7,
4,
1,
2,
4,
4,
8,
8,
1,
1,
4,
5,
2,
3,
1,
3,
2,
3,
1,
2,
1,
0,
3,
1,
0,
1,
0,
1,
0,
0,
1,
0,
1,
0,
0,
0,
0,
0,
1,
1,
0,
0,
0,
0,
0,
0,
0,
0,
0,
1,
0,
0,
0,
0,
0,
0,
0,
2,
0,
0,
1,
0,
0,
0,
0,
0,
0,
0,
0,
0,
0,
1,
0,
0,
0,
0,
0,
0,
0,
0,
0,
0,
0,
0,
0,
0,
0,
0,
0,
0,
0,
0,
0,
0,
0,
0,
0,
0,
0,
0,
0,
0,
0,
0,
0,
0,
0,
0,
0,
0,
0,
0,
0,
0,
0,
0,
0,
0,
0,
0,
0,
0,
0,
0,
0,
0,
0,
0,
0,
0,
0,
0,
0,
0,
0,
0,
0,
0,
0,
0,
0,
0,
0,
0,
0,
0,
0,
0,
#ENDOFDATA   :

File: Ba std.msa
#FORMAT      : EMSA/MAS Spectral Data File
#VERSION     : 1.0
#TITLE       : BaF2 std
#DATE        : 15-OCT-2018
#TIME        : 02:07
#OWNER       : Unknown
#NPOINTS     : 4096
#NCOLUMNS    : 1
#XUNITS      : eV
#YUNITS      : counts
#DATATYPE    : Y
#XPERCHAN    : 9.99856
#OFFSET      : 1.63032
#BEAMKV      : 20
#SIGNALTYPE  : EDS
#ELEVANGLE   : 35
#AZIMANGLE   : 0
#LIVETIME    : 1171.3
#REALTIME    : 1545.87
#PROBECUR    : 0.98986
#TDEADLYR    : 0
#TACTLYR     : 0.045
#TALWIND     : 0.003
#CHOFFSET    : 0.0
#XLABEL      : Energy (eV)
#YLABEL      : Counts
#EDSDET      : SDUTW
##SPECIMEN   : BaF2 std
##D2STDCMP   : BaF2,(F:21.672),(Ba:78.328),5.0
##DET_HASH   : 97086dfe-e5c2-9c77-3984-1d0b14bbbf41
##CALIB_HASH : 1a36e884-c26d-3547-51b1-d0bb2efdf95a
##WORKING    : 17.0 mm
##SAMPLE     : <BulkSample id="1">\n<mOrientation id="2">\n<double>0.0</double>\n<double>0.0</double>\n<double>-1.0</double>\n</mOrientation>\n</BulkSample>
#SPECTRUM    :
146781,
283,
45531,
23923,
119824,
591151,
28483,
36197,
24945,
26378,
28803,
32038,
33865,
38540,
35722,
37891,
39332,
39537,
40249,
43936,
41475,
39647,
41174,
38805,
38305,
36967,
36287,
35212,
54265,
38428,
34094,
70560,
766194,
42892,
147891,
239636,
49668,
141475,
25369,
38407,
43212,
28407,
26043,
19556,
16954,
17105,
18324,
16038,
15858,
15512,
15377,
15007,
14608,
14514,
14060,
13867,
13475,
13307,
13066,
12653,
12374,
11841,
11802,
11589,
11689,
10972,
10916,
10701,
10095,
10122,
9596,
9362,
9193,
8870,
8531,
8756,
8267,
7826,
7569,
7177,
6983,
6933,
6576,
6469,
6326,
6078,
5778,
5694,
5433,
5290,
5220,
4980,
4513,
4547,
4357,
4212,
3928,
3704,
3716,
3428,
3387,
3195,
3004,
2888,
2747,
2585,
2492,
2391,
2276,
2183,
2061,
1903,
1840,
1717,
1562,
1504,
1388,
1291,
1246,
1251,
1061,
1031,
918,
909,
818,
741,
738,
630,
537,
516,
456,
415,
384,
313,
271,
221,
183,
157,
124,
101,
53,
31,
11,
9,
3,
6,
8,
6,
6,
11,
6,
2,
3,
4,
2,
6,
7,
2,
3,
4,
1,
3,
1,
2,
1,
1,
2,
3,
0,
3,
0,
2,
2,
1,
1,
1,
2,
0,
0,
2,
1,
0,
0,
0,
0,
1,
0,
0,
0,
0,
1,
0,
0,
1,
0,
0,
0,
0,
0,
0,
1,
0,
0,
0,
1,
0,
0,
0,
0,
0,
0,
0,
0,
0,
0,
0,
0,
0,
0,
0,
0,
0,
0,
0,
0,
0,
0,
0,
0,
0,
0,
0,
0,
0,
1,
0,
0,
0,
0,
0,
0,
0,
0,
0,
0,
0,
0,
0,
0,
0,
0,
0,
0,
0,
0,
0,
0,
0,
0,
0,
0,
0,
0,
0,
0,
0,
0,
0,
0,
0,
0,
0,
0,
0,
0,
0,
0,
0,
0,
0,
0,
0,
0,
0,
0,
0,
0,
0,
0,
0,
0,
0,
0,
0,
#ENDOFDATA   :

File: Bi std.msa
#FORMAT      : EMSA/MAS Spectral Data File
#VERSION     : 1.0
#TITLE       : Bi std
#DATE        : 15-OCT-2018
#TIME        : 02:01
#OWNER       : Unknown
#NPOINTS     : 4096
#NCOLUMNS    : 1
#XUNITS      : eV
#YUNITS      : counts
#DATATYPE    : Y
#XPERCHAN    : 9.99856
#OFFSET      : 1.63032
#BEAMKV      : 20
#SIGNALTYPE  : EDS
#ELEVANGLE   : 35
#AZIMANGLE   : 0
#LIVETIME    : 1132
#REALTIME    : 1671.82
#PROBECUR    : 0.98967
#TDEADLYR    : 0
#TACTLYR     : 0.045
#TALWIND     : 0.003
#CHOFFSET    : 0.0
#XLABEL      : Energy (eV)
#YLABEL      : Counts
#EDSDET      : SDUTW
##SPECIMEN   : Bi std
##D2STDCMP   : Bi,(Bi:100.0),5.0
##DET_HASH   : 97086dfe-e5c2-9c77-3984-1d0b14bbbf41
##CALIB_HASH : 1a36e884-c26d-3547-51b1-d0bb2efdf95a
##WORKING    : 17.0 mm
##SAMPLE     : <BulkSample id="1">\n<mOrientation id="2">\n<double>0.0</double>\n<double>0.0</double>\n<double>-1.0</double>\n</mOrientation>\n</BulkSample>
#SPECTRUM    :
141901,
667,
39354,
17323,
25932,
60705,
43651,
48213,
53117,
59183,
65301,
69806,
69224,
91072,
94783,
72989,
98780,
868347,
1139142,
74190,
61421,
37717,
42055,
53502,
37945,
36362,
38131,
36090,
37474,
35639,
35910,
35943,
35769,
35595,
35632,
38202,
36157,
34249,
33810,
35540,
32356,
32061,
31376,
30986,
30511,
31332,
34879,
28253,
28000,
27410,
27385,
26528,
25652,
25664,
24877,
24475,
23959,
22959,
22544,
22180,
22164,
21246,
20773,
20244,
19978,
19550,
19231,
22745,
20143,
17702,
17227,
16668,
16365,
16041,
15661,
16029,
22219,
83937,
62581,
15310,
13200,
12645,
12253,
12288,
12033,
11259,
10994,
10538,
10325,
11010,
11071,
10813,
20195,
38726,
14590,
9943,
9087,
6950,
6648,
6465,
6157,
5987,
5742,
5427,
5313,
5184,
4999,
4763,
5435,
6887,
4739,
4231,
4239,
3548,
3259,
3042,
2981,
2753,
2573,
2458,
2288,
2252,
2049,
1991,
1779,
1601,
1579,
1572,
1266,
1255,
1127,
1009,
984,
854,
776,
676,
625,
542,
461,
366,
283,
219,
132,
62,
24,
18,
23,
13,
21,
17,
23,
9,
16,
17,
14,
19,
16,
11,
10,
8,
7,
5,
6,
6,
3,
6,
1,
8,
5,
10,
6,
2,
7,
6,
5,
3,
4,
3,
3,
2,
4,
1,
1,
6,
1,
3,
4,
4,
1,
1,
2,
1,
1,
1,
0,
1,
3,
1,
0,
2,
1,
2,
2,
1,
3,
0,
0,
1,
0,
0,
0,
0,
1,
0,
0,
0,
1,
0,
0,
0,
0,
1,
0,
0,
0,
1,
0,
0,
0,
0,
0,
1,
1,
0,
0,
0,
0,
0,
0,
0,
0,
0,
0,
0,
0,
0,
0,
0,
0,
0,
0,
0,
0,
0,
0,
0,
0,
0,
0,
0,
0,
0,
0,
0,
0,
0,
0,
0,
0,
0,
0,
0,
0,
0,
0,
0,
0,
0,
0,
0,
0,
0,
0,
0,
0,
0,
0,
0,
0,
0,
0,
0,
0,
0,
#ENDOFDATA   :

File: Co std.msa
#FORMAT      : EMSA/MAS Spectral Data File
#VERSION     : 1.0
#TITLE       : Co std
#DATE        : 11-OCT-2018
#TIME        : 02:03
#OWNER       : Unknown
#NPOINTS     : 4096
#NCOLUMNS    : 1
#XUNITS      : eV
#YUNITS      : counts
#DATATYPE    : Y
#XPERCHAN    : 9.99856
#OFFSET      : 1.63032
#BEAMKV      : 20
#SIGNALTYPE  : EDS
#ELEVANGLE   : 35
#AZIMANGLE   : 0
#LIVETIME    : 1158.79
#REALTIME    : 1518.71
#PROBECUR    : 0.97271
#TDEADLYR    : 0
#TACTLYR     : 0.045
#TALWIND     : 0.003
#CHOFFSET    : 0.0
#XLABEL      : Energy (eV)
#YLABEL      : Counts
#EDSDET      : SDUTW
##SPECIMEN   : Co std
##D2STDCMP   : Co,(Co:100.0),8.9
##DET_HASH   : 97086dfe-e5c2-9c77-3984-1d0b14bbbf41
##CALIB_HASH : 1a36e884-c26d-3547-51b1-d0bb2efdf95a
##WORKING    : 17.0 mm
##SAMPLE     : <BulkSample id="1">\n<mOrientation id="2">\n<double>0.0</double>\n<double>0.0</double>\n<double>-1.0</double>\n</mOrientation>\n</BulkSample>
#SPECTRUM    :
188852,
137,
21949,
17499,
37621,
308027,
104308,
12917,
16226,
20306,
24182,
27554,
27368,
30158,
29609,
31321,
32740,
32851,
32731,
33283,
32585,
31930,
31413,
30295,
29979,
28882,
28025,
26932,
25927,
25442,
24836,
23468,
23170,
22300,
21337,
20996,
20449,
22445,
19443,
19955,
17788,
17190,
17531,
16672,
15595,
15693,
17077,
15369,
20488,
547635,
489675,
16109,
12929,
14662,
61826,
103713,
10412,
8413,
8142,
8153,
8286,
7731,
7536,
7251,
7080,
7057,
7065,
6599,
6470,
6281,
6019,
6185,
5903,
5731,
5664,
5594,
5202,
5115,
4988,
4705,
4573,
4431,
4237,
4203,
3933,
3711,
3708,
3522,
3381,
3372,
3334,
3144,
2869,
2878,
2730,
2577,
2616,
2342,
2568,
2805,
2294,
2000,
1906,
1819,
1853,
1708,
1659,
1498,
1438,
1362,
1276,
1210,
1073,
1027,
917,
923,
846,
813,
768,
740,
661,
591,
573,
555,
521,
431,
406,
355,
330,
323,
282,
287,
225,
197,
174,
150,
117,
89,
103,
71,
68,
43,
24,
10,
2,
6,
2,
6,
1,
5,
2,
6,
8,
3,
3,
4,
0,
3,
4,
1,
3,
1,
4,
1,
1,
2,
2,
3,
4,
2,
0,
0,
0,
1,
1,
0,
2,
1,
0,
0,
1,
1,
0,
1,
0,
0,
0,
0,
0,
0,
0,
0,
0,
0,
0,
0,
0,
0,
0,
0,
0,
0,
0,
0,
0,
0,
0,
0,
0,
0,
0,
0,
0,
0,
0,
0,
0,
0,
0,
0,
0,
0,
0,
0,
1,
0,
0,
0,
0,
0,
0,
0,
0,
0,
0,
0,
0,
0,
0,
0,
0,
0,
0,
0,
0,
0,
0,
0,
0,
0,
0,
0,
0,
0,
0,
0,
0,
0,
0,
0,
0,
0,
0,
0,
0,
0,
0,
0,
0,
0,
0,
0,
0,
0,
0,
0,
0,
0,
0,
0,
0,
0,
0,
0,
0,
0,
0,
0,
0,
0,
0,
0,
0,
0,
#ENDOFDATA   :

File: F std.msa
#FORMAT      : EMSA/MAS Spectral Data File
#VERSION     : 1.0
#TITLE       : CaF2 std
#DATE        : 11-OCT-2018
#TIME        : 00:52
#OWNER       : Unknown
#NPOINTS     : 4096
#NCOLUMNS    : 1
#XUNITS      : eV
#YUNITS      : counts
#DATATYPE    : Y
#XPERCHAN    : 9.99856
#OFFSET      : 1.63032
#BEAMKV      : 20
#SIGNALTYPE  : EDS
#ELEVANGLE   : 35
#AZIMANGLE   : 0
#LIVETIME    : 1167.54
#REALTIME    : 1451.98
#PROBECUR    : 0.97401
#TDEADLYR    : 0
#TACTLYR     : 0.045
#TALWIND     : 0.003
#CHOFFSET    : 0.0
#XLABEL      : Energy (eV)
#YLABEL      : Counts
#EDSDET      : SDUTW
##SPECIMEN   : CaF2 std
##D2STDCMP   : CaF2,(F:48.6667),(Ca:51.3333),3.18
##DET_HASH   : 97086dfe-e5c2-9c77-3984-1d0b14bbbf41
##CALIB_HASH : 1a36e884-c26d-3547-51b1-d0bb2efdf95a
##WORKING    : 17.0 mm
##SAMPLE     : <BulkSample id="1">\n<mOrientation id="2">\n<double>0.0</double>\n<double>0.0</double>\n<double>-1.0</double>\n</mOrientation>\n</BulkSample>
#SPECTRUM    :
196810,
166,
65671,
6109,
19281,
322722,
10983,
17045,
18534,
21619,
24786,
26670,
44130,
29825,
42413,
25291,
26664,
24762,
23307,
23111,
22147,
21385,
21079,
20660,
19058,
23352,
798076,
300008,
46612,
143573,
11273,
11850,
10398,
10178,
9839,
9536,
9153,
8989,
8762,
8726,
8355,
7895,
8034,
7625,
7465,
7317,
7347,
6678,
6493,
6225,
6032,
5957,
6351,
7605,
5623,
5683,
5141,
4883,
4808,
4749,
4325,
4187,
4142,
4065,
3906,
3751,
3732,
3587,
3445,
3253,
3149,
3029,
2963,
2883,
2760,
2743,
2735,
2409,
2411,
2433,
2168,
2174,
2021,
1958,
1946,
1809,
1756,
1712,
1613,
1531,
1482,
1456,
1346,
1292,
1274,
1496,
1511,
1031,
1022,
921,
949,
855,
808,
761,
757,
700,
753,
698,
634,
581,
522,
514,
480,
438,
363,
345,
343,
299,
303,
247,
253,
236,
244,
202,
191,
173,
139,
167,
128,
112,
95,
62,
80,
70,
51,
42,
40,
37,
30,
24,
12,
11,
10,
1,
3,
1,
1,
1,
2,
0,
1,
0,
0,
1,
0,
1,
0,
0,
1,
1,
0,
0,
0,
0,
0,
0,
0,
0,
0,
0,
0,
0,
0,
0,
0,
0,
0,
0,
0,
0,
0,
0,
0,
0,
1,
0,
0,
0,
0,
0,
0,
0,
0,
0,
0,
0,
0,
0,
0,
0,
0,
0,
0,
0,
0,
0,
0,
0,
0,
0,
0,
0,
0,
0,
0,
0,
0,
0,
0,
0,
0,
0,
0,
0,
0,
0,
0,
0,
0,
0,
0,
0,
0,
0,
0,
0,
0,
0,
0,
0,
0,
0,
0,
0,
0,
0,
0,
0,
0,
0,
0,
0,
0,
0,
0,
0,
0,
0,
0,
0,
0,
0,
0,
0,
0,
0,
0,
0,
0,
0,
0,
0,
0,
0,
0,
0,
0,
0,
0,
0,
0,
0,
0,
0,
0,
0,
0,
0,
0,
0,
0,
0,
0,
0,
#ENDOFDATA   :

File: Fe std.msa
#FORMAT      : EMSA/MAS Spectral Data File
#VERSION     : 1.0
#TITLE       : Fe std
#DATE        : 11-OCT-2018
#TIME        : 01:21
#OWNER       : Unknown
#NPOINTS     : 4096
#NCOLUMNS    : 1
#XUNITS      : eV
#YUNITS      : counts
#DATATYPE    : Y
#XPERCHAN    : 9.99856
#OFFSET      : 1.63032
#BEAMKV      : 20
#SIGNALTYPE  : EDS
#ELEVANGLE   : 35
#AZIMANGLE   : 0
#LIVETIME    : 1164.66
#REALTIME    : 1521.64
#PROBECUR    : 0.97436
#TDEADLYR    : 0
#TACTLYR     : 0.045
#TALWIND     : 0.003
#CHOFFSET    : 0.0
#XLABEL      : Energy (eV)
#YLABEL      : Counts
#EDSDET      : SDUTW
##SPECIMEN   : Fe std
##D2STDCMP   : Fe,(Fe:100.0),7.87
##DET_HASH   : 97086dfe-e5c2-9c77-3984-1d0b14bbbf41
##CALIB_HASH : 1a36e884-c26d-3547-51b1-d0bb2efdf95a
##WORKING    : 17.0 mm
##SAMPLE     : <BulkSample id="1">\n<mOrientation id="2">\n<double>0.0</double>\n<double>0.0</double>\n<double>-1.0</double>\n</mOrientation>\n</BulkSample>
#SPECTRUM    :
197982,
177,
40220,
16853,
87432,
680864,
13357,
16150,
18998,
23106,
26667,
28826,
51830,
34783,
30666,
32337,
33731,
33658,
33327,
34621,
32248,
31775,
30947,
30181,
29558,
28443,
27785,
26961,
26135,
25032,
24655,
23236,
22748,
25654,
21548,
20633,
19469,
19158,
19692,
19444,
17769,
16606,
17064,
17232,
18756,
272471,
983429,
27011,
14323,
16831,
112614,
72764,
9487,
9024,
9024,
8791,
8460,
8348,
8155,
8129,
7858,
7582,
7413,
7341,
7191,
6933,
6781,
6561,
6503,
6322,
6119,
5862,
5759,
5539,
5354,
5367,
5166,
4953,
4753,
4578,
4407,
4299,
4137,
4127,
3950,
3641,
3567,
3478,
3298,
3161,
3161,
3733,
3522,
2733,
2650,
2918,
3179,
2341,
2203,
2166,
2009,
1907,
1667,
1680,
1671,
1570,
1452,
1442,
1353,
1293,
1193,
1140,
1020,
965,
901,
934,
804,
769,
759,
657,
654,
556,
540,
490,
434,
441,
401,
371,
324,
309,
249,
222,
214,
174,
144,
115,
114,
94,
77,
74,
59,
22,
22,
8,
4,
6,
4,
3,
7,
3,
3,
2,
3,
5,
1,
2,
1,
7,
2,
4,
1,
2,
1,
2,
3,
0,
1,
0,
0,
1,
0,
1,
0,
1,
0,
0,
0,
0,
1,
2,
0,
0,
0,
0,
0,
0,
0,
0,
0,
0,
0,
0,
0,
0,
0,
0,
0,
0,
0,
0,
0,
0,
0,
0,
0,
0,
0,
0,
0,
0,
0,
0,
0,
0,
0,
0,
0,
0,
0,
0,
0,
0,
0,
0,
0,
0,
0,
0,
0,
0,
0,
0,
0,
0,
0,
0,
0,
0,
0,
0,
0,
0,
0,
0,
0,
0,
0,
0,
0,
0,
0,
0,
0,
0,
0,
0,
0,
0,
0,
0,
0,
0,
0,
0,
0,
0,
0,
0,
0,
0,
0,
0,
0,
0,
0,
0,
0,
0,
0,
0,
0,
0,
0,
0,
0,
0,
0,
0,
0,
0,
0,
0,
0,
0,
#ENDOFDATA   :

File: K std.msa
#FORMAT      : EMSA/MAS Spectral Data File
#VERSION     : 1.0
#TITLE       : KBr std
#DATE        : 11-OCT-2018
#TIME        : 02:39
#OWNER       : Unknown
#NPOINTS     : 4096
#NCOLUMNS    : 1
#XUNITS      : eV
#YUNITS      : counts
#DATATYPE    : Y
#XPERCHAN    : 9.99856
#OFFSET      : 1.63032
#BEAMKV      : 20
#SIGNALTYPE  : EDS
#ELEVANGLE   : 35
#AZIMANGLE   : 0
#LIVETIME    : 1147.26
#REALTIME    : 1605.11
#PROBECUR    : 0.97392
#TDEADLYR    : 0
#TACTLYR     : 0.045
#TALWIND     : 0.003
#CHOFFSET    : 0.0
#XLABEL      : Energy (eV)
#YLABEL      : Counts
#EDSDET      : SDUTW
##SPECIMEN   : KBr std
##D2STDCMP   : KBr,(K:32.8551),(Br:67.1449),5.0
##DET_HASH   : 97086dfe-e5c2-9c77-3984-1d0b14bbbf41
##CALIB_HASH : 1a36e884-c26d-3547-51b1-d0bb2efdf95a
##WORKING    : 17.0 mm
##SAMPLE     : <BulkSample id="1">\n<mOrientation id="2">\n<double>0.0</double>\n<double>0.0</double>\n<double>-1.0</double>\n</mOrientation>\n</BulkSample>
#SPECTRUM    :
192713,
147,
25405,
7859,
14599,
24419,
35662,
43111,
51163,
108709,
181302,
1290499,
29133,
27007,
23902,
25666,
26787,
27917,
28586,
30039,
29891,
32194,
30299,
122251,
675981,
46096,
95319,
21322,
21231,
21038,
20580,
20307,
20026,
19701,
21462,
20014,
18303,
17609,
17222,
17089,
16017,
15478,
15381,
14736,
14418,
14440,
15250,
13614,
13046,
12270,
12406,
11832,
11331,
11267,
10798,
10359,
9932,
9763,
9491,
9336,
9171,
8740,
8481,
8292,
7965,
7648,
7581,
7324,
7059,
7006,
6789,
6404,
6384,
6286,
5836,
5986,
5660,
5605,
5139,
5035,
5005,
4764,
4719,
4851,
17288,
71218,
19767,
4050,
3541,
3494,
3433,
3334,
3125,
3077,
5660,
11870,
4741,
2634,
2236,
2154,
2038,
1984,
1888,
1734,
1634,
1641,
1665,
1411,
1410,
1348,
1205,
1147,
1146,
1001,
1011,
919,
859,
794,
783,
626,
622,
580,
561,
484,
472,
440,
418,
330,
326,
302,
262,
201,
195,
182,
116,
112,
81,
77,
61,
47,
22,
4,
6,
1,
1,
4,
4,
5,
1,
5,
3,
4,
4,
3,
1,
1,
2,
2,
3,
4,
1,
1,
1,
3,
2,
1,
0,
1,
1,
1,
3,
2,
1,
2,
0,
1,
0,
0,
0,
1,
0,
0,
0,
0,
0,
1,
1,
0,
0,
0,
0,
0,
0,
0,
0,
0,
0,
0,
0,
0,
0,
0,
0,
0,
0,
0,
0,
0,
0,
1,
0,
0,
0,
0,
0,
0,
0,
0,
0,
0,
0,
0,
0,
0,
0,
0,
0,
0,
0,
0,
0,
0,
0,
0,
0,
0,
0,
0,
0,
0,
0,
0,
0,
0,
0,
0,
0,
0,
0,
0,
0,
0,
0,
0,
0,
0,
0,
0,
0,
0,
0,
0,
0,
0,
0,
0,
0,
0,
0,
0,
0,
0,
0,
0,
0,
0,
0,
0,
0,
0,
0,
0,
0,
0,
0,
0,
0,
0,
0,
0,
0,
0,
0,
0,
#ENDOFDATA   :

File: Mg std.msa
#FORMAT      : EMSA/MAS Spectral Data File
#VERSION     : 1.0
#TITLE       : Mg std
#DATE        : 11-OCT-2018
#TIME        : 00:04
#OWNER       : Unknown
#NPOINTS     : 4096
#NCOLUMNS    : 1
#XUNITS      : eV
#YUNITS      : counts
#DATATYPE    : Y
#XPERCHAN    : 9.99856
#OFFSET      : 1.63032
#BEAMKV      : 20
#SIGNALTYPE  : EDS
#ELEVANGLE   : 35
#AZIMANGLE   : 0
#LIVETIME    : 1149.05
#REALTIME    : 1784.69
#PROBECUR    : 0.97475
#TDEADLYR    : 0
#TACTLYR     : 0.045
#TALWIND     : 0.003
#CHOFFSET    : 0.0
#XLABEL      : Energy (eV)
#YLABEL      : Counts
#EDSDET      : SDUTW
##SPECIMEN   : Mg std
##D2STDCMP   : Mg,(Mg:100.0),1.74
##DET_HASH   : 97086dfe-e5c2-9c77-3984-1d0b14bbbf41
##CALIB_HASH : 1a36e884-c26d-3547-51b1-d0bb2efdf95a
##WORKING    : 17.0 mm
##SAMPLE     : <BulkSample id="1">\n<mOrientation id="2">\n<double>0.0</double>\n<double>0.0</double>\n<double>-1.0</double>\n</mOrientation>\n</BulkSample>
#SPECTRUM    :
201023,
202,
23555,
11696,
37075,
34498,
40272,
56121,
112134,
8389014,
16040,
10696,
11553,
13175,
13254,
13972,
14635,
16256,
67458,
14495,
14132,
13936,
13840,
12926,
13008,
12859,
12218,
12240,
11443,
10927,
10638,
10191,
9953,
9487,
9250,
8903,
8431,
8211,
7929,
7766,
7251,
7121,
7385,
6611,
6375,
6360,
6272,
5864,
5433,
5274,
5146,
5018,
4882,
4524,
4508,
4312,
4061,
4040,
3880,
3679,
3625,
3520,
3575,
3292,
3189,
3024,
2851,
2879,
2772,
2639,
2628,
2482,
2267,
2377,
2268,
2105,
2128,
2007,
1866,
1809,
1791,
1694,
1711,
1503,
1416,
1392,
1338,
1340,
1238,
1235,
1198,
1090,
969,
972,
962,
882,
823,
828,
757,
771,
742,
660,
610,
590,
560,
571,
512,
505,
457,
412,
368,
363,
341,
320,
292,
298,
292,
281,
217,
218,
189,
205,
192,
138,
162,
115,
106,
92,
101,
104,
78,
79,
66,
54,
65,
33,
37,
36,
19,
14,
11,
5,
6,
2,
1,
0,
0,
0,
0,
0,
0,
1,
2,
0,
0,
0,
0,
0,
0,
0,
0,
0,
0,
1,
0,
1,
0,
0,
0,
0,
0,
0,
0,
0,
1,
0,
0,
0,
0,
0,
0,
0,
0,
0,
0,
0,
0,
0,
0,
0,
0,
0,
0,
0,
0,
0,
0,
0,
0,
0,
0,
0,
0,
0,
0,
0,
0,
0,
0,
0,
0,
0,
0,
0,
0,
0,
0,
0,
0,
0,
0,
0,
0,
0,
0,
0,
0,
0,
0,
0,
0,
0,
0,
0,
0,
0,
0,
0,
0,
0,
0,
0,
0,
0,
0,
0,
0,
0,
0,
0,
0,
0,
0,
0,
0,
0,
0,
0,
0,
0,
0,
0,
0,
0,
0,
0,
0,
0,
0,
0,
0,
0,
0,
0,
0,
0,
0,
0,
0,
0,
0,
0,
0,
0,
0,
0,
0,
0,
0,
0,
0,
0,
0,
0,
#ENDOFDATA   :

File: Mn std.msa
#FORMAT      : EMSA/MAS Spectral Data File
#VERSION     : 1.0
#TITLE       : Mn std
#DATE        : 11-OCT-2018
#TIME        : 01:28
#OWNER       : Unknown
#NPOINTS     : 4096
#NCOLUMNS    : 1
#XUNITS      : eV
#YUNITS      : counts
#DATATYPE    : Y
#XPERCHAN    : 9.99856
#OFFSET      : 1.63032
#BEAMKV      : 20
#SIGNALTYPE  : EDS
#ELEVANGLE   : 35
#AZIMANGLE   : 0
#LIVETIME    : 1165.98
#REALTIME    : 1531.02
#PROBECUR    : 0.97528
#TDEADLYR    : 0
#TACTLYR     : 0.045
#TALWIND     : 0.003
#CHOFFSET    : 0.0
#XLABEL      : Energy (eV)
#YLABEL      : Counts
#EDSDET      : SDUTW
##SPECIMEN   : Mn std
##D2STDCMP   : Mn,(Mn:100.0),5.0
##DET_HASH   : 97086dfe-e5c2-9c77-3984-1d0b14bbbf41
##CALIB_HASH : 1a36e884-c26d-3547-51b1-d0bb2efdf95a
##WORKING    : 17.0 mm
##SAMPLE     : <BulkSample id="1">\n<mOrientation id="2">\n<double>0.0</double>\n<double>0.0</double>\n<double>-1.0</double>\n</mOrientation>\n</BulkSample>
#SPECTRUM    :
195532,
141,
25337,
21956,
259969,
43953,
11344,
15391,
19645,
24290,
27202,
29659,
31921,
33490,
32464,
33997,
34602,
34540,
34160,
34267,
32800,
31914,
31066,
30288,
29235,
28297,
27561,
26660,
25468,
25955,
27853,
23263,
22330,
21558,
21534,
20575,
19979,
19259,
18711,
18518,
19151,
50348,
1412986,
150140,
16349,
19126,
144387,
69613,
9787,
9433,
9525,
9333,
8989,
9007,
8731,
8521,
8594,
8174,
8188,
7779,
7554,
7260,
7205,
7181,
6756,
6782,
6715,
6449,
6362,
6010,
5884,
5633,
5499,
5281,
5159,
5066,
4995,
4653,
4583,
4500,
4324,
4086,
3864,
4036,
5106,
4303,
3465,
3390,
3391,
3333,
3031,
2889,
2699,
2704,
2523,
2485,
2235,
2240,
2126,
1999,
1906,
1786,
1706,
1675,
1622,
1462,
1423,
1390,
1247,
1231,
1154,
1057,
1039,
953,
938,
863,
732,
760,
713,
634,
555,
550,
537,
438,
455,
402,
372,
329,
320,
270,
243,
239,
206,
160,
169,
125,
112,
122,
79,
78,
59,
36,
25,
8,
9,
5,
5,
3,
2,
5,
4,
2,
5,
4,
3,
5,
2,
5,
2,
3,
2,
3,
1,
0,
1,
0,
0,
0,
1,
2,
1,
1,
1,
2,
0,
1,
0,
0,
3,
1,
0,
0,
0,
0,
0,
0,
0,
0,
0,
0,
0,
0,
0,
1,
0,
0,
0,
0,
0,
0,
0,
0,
0,
0,
0,
0,
0,
0,
0,
0,
0,
0,
0,
0,
0,
0,
0,
0,
0,
0,
0,
0,
0,
0,
0,
0,
0,
0,
0,
0,
0,
0,
0,
0,
0,
0,
0,
0,
0,
0,
0,
0,
0,
0,
0,
0,
0,
0,
0,
0,
0,
0,
0,
0,
0,
0,
0,
0,
0,
0,
0,
0,
0,
0,
0,
0,
0,
0,
0,
0,
0,
0,
0,
0,
0,
0,
0,
0,
0,
0,
0,
0,
0,
0,
0,
0,
0,
0,
0,
0,
0,
0,
0,
0,
#ENDOFDATA   :

File: Na std.msa
#FORMAT      : EMSA/MAS Spectral Data File
#VERSION     : 1.0
#TITLE       : Trimmed[NaF std,352 eV,814 eV]
#DATE        : 11-OCT-2018
#TIME        : 00:11
#OWNER       : Unknown
#NPOINTS     : 4096
#NCOLUMNS    : 1
#XUNITS      : eV
#YUNITS      : counts
#DATATYPE    : Y
#XPERCHAN    : 9.99856
#OFFSET      : 1.63032
#BEAMKV      : 20
#SIGNALTYPE  : EDS
#ELEVANGLE   : 35
#AZIMANGLE   : 0
#LIVETIME    : 1158.62
#REALTIME    : 1458.43
#PROBECUR    : 0.97493
#TDEADLYR    : 0
#TACTLYR     : 0.045
#TALWIND     : 0.003
#CHOFFSET    : 0.0
#XLABEL      : Energy (eV)
#YLABEL      : Counts
#EDSDET      : SDUTW
##SPECIMEN   : Trimmed[NaF std,352 eV,814 eV]
##D2STDCMP   : NaF,(F:45.2465),(Na:54.7535),5.0
##DET_HASH   : 97086dfe-e5c2-9c77-3984-1d0b14bbbf41
##CALIB_HASH : 1a36e884-c26d-3547-51b1-d0bb2efdf95a
##WORKING    : 17.0 mm
##SAMPLE     : <BulkSample id="1">\n<mOrientation id="2">\n<double>0.0</double>\n<double>0.0</double>\n<double>-1.0</double>\n</mOrientation>\n</BulkSample>
#SPECTRUM    :
202075,
163,
29300,
10191.4,
11637.1,
13082.9,
15863,
310664,
81092,
9852,
12389,
12396,
19551,
14258,
13734,
17080,
14791,
14586,
14305,
17587,
14055,
13325,
13001,
12308,
12071,
11528,
11141,
10697,
10156,
9653,
9332,
8838,
8618,
8195,
7998,
7567,
7233,
6963,
6906,
6539,
6097,
6013,
5693,
5503,
5330,
5129,
5166,
4557,
4519,
4364,
4273,
4018,
3773,
3846,
3685,
3425,
3307,
3200,
3052,
2993,
2922,
2811,
2715,
2711,
2570,
2461,
2380,
2256,
2180,
2167,
2102,
2054,
1936,
1834,
1832,
1760,
1633,
1600,
1577,
1484,
1433,
1360,
1303,
1267,
1215,
1125,
1052,
1072,
1016,
981,
1015,
842,
806,
828,
740,
682,
689,
629,
627,
571,
534,
550,
497,
490,
456,
438,
399,
359,
366,
308,
346,
298,
277,
252,
264,
221,
199,
187,
201,
151,
154,
139,
129,
120,
113,
96,
79,
94,
75,
80,
45,
54,
51,
49,
37,
35,
17,
19,
12,
16,
5,
8,
1,
2,
1,
0,
0,
0,
0,
0,
0,
0,
0,
0,
0,
0,
0,
0,
0,
0,
1,
0,
0,
0,
0,
0,
0,
0,
0,
0,
0,
0,
0,
0,
1,
0,
0,
0,
0,
0,
0,
0,
0,
0,
0,
0,
0,
0,
0,
0,
0,
0,
0,
0,
0,
0,
0,
0,
0,
0,
0,
0,
0,
0,
0,
0,
0,
0,
0,
0,
0,
0,
0,
0,
0,
0,
0,
0,
0,
0,
0,
0,
0,
0,
0,
0,
0,
0,
0,
0,
0,
0,
0,
0,
0,
0,
0,
0,
0,
0,
0,
0,
0,
0,
0,
0,
0,
0,
0,
0,
0,
0,
0,
0,
0,
0,
0,
0,
0,
0,
0,
0,
0,
0,
0,
0,
0,
0,
0,
0,
0,
0,
0,
0,
0,
0,
0,
0,
0,
0,
0,
0,
0,
0,
0,
0,
0,
0,
0,
0,
0,
0,
0,
0,
#ENDOFDATA   :

File: Ni std.msa
#FORMAT      : EMSA/MAS Spectral Data File
#VERSION     : 1.0
#TITLE       : Ni std
#DATE        : 11-OCT-2018
#TIME        : 02:10
#OWNER       : Unknown
#NPOINTS     : 4096
#NCOLUMNS    : 1
#XUNITS      : eV
#YUNITS      : counts
#DATATYPE    : Y
#XPERCHAN    : 9.99856
#OFFSET      : 1.63032
#BEAMKV      : 20
#SIGNALTYPE  : EDS
#ELEVANGLE   : 35
#AZIMANGLE   : 0
#LIVETIME    : 1164.08
#REALTIME    : 1531.02
#PROBECUR    : 0.97258
#TDEADLYR    : 0
#TACTLYR     : 0.045
#TALWIND     : 0.003
#CHOFFSET    : 0.0
#XLABEL      : Energy (eV)
#YLABEL      : Counts
#EDSDET      : SDUTW
##SPECIMEN   : Ni std
##D2STDCMP   : Ni,(Ni:100.0),5.0
##DET_HASH   : 97086dfe-e5c2-9c77-3984-1d0b14bbbf41
##CALIB_HASH : 1a36e884-c26d-3547-51b1-d0bb2efdf95a
##WORKING    : 17.0 mm
##SAMPLE     : <BulkSample id="1">\n<mOrientation id="2">\n<double>0.0</double>\n<double>0.0</double>\n<double>-1.0</double>\n</mOrientation>\n</BulkSample>
#SPECTRUM    :
190403,
132,
18197,
16036,
32321,
163288,
1340465,
18942,
15670,
19612,
22808,
25899,
28705,
29005,
29029,
30999,
32106,
32335,
32811,
33140,
32813,
32079,
31838,
30752,
30380,
29399,
28725,
27854,
27113,
26137,
25375,
24602,
23318,
22657,
22106,
21384,
20465,
20137,
19656,
19680,
18349,
20010,
20476,
17196,
16144,
16494,
18431,
15128,
14263,
13949,
14287,
14547,
23052,
581832,
328480,
13814,
11663,
12062,
22226,
117923,
22400,
7842,
7505,
7583,
7504,
7545,
7152,
6862,
6693,
6645,
6188,
6186,
6057,
5835,
5804,
5747,
5482,
5178,
5033,
4957,
4728,
4617,
4447,
4364,
4269,
3997,
3974,
3788,
3656,
3511,
3513,
3290,
3090,
2927,
2874,
2727,
2634,
2469,
2396,
2270,
2192,
2153,
2060,
1958,
1782,
1760,
1829,
1973,
1530,
1375,
1314,
1249,
1284,
1238,
1106,
944,
881,
875,
812,
747,
744,
693,
608,
564,
543,
505,
444,
415,
365,
318,
287,
293,
231,
225,
170,
153,
136,
104,
97,
74,
68,
52,
21,
9,
6,
6,
2,
2,
6,
1,
3,
5,
1,
1,
1,
5,
5,
2,
4,
2,
5,
4,
3,
3,
0,
1,
5,
1,
0,
0,
0,
1,
1,
2,
1,
1,
1,
0,
0,
1,
1,
0,
0,
1,
0,
0,
0,
0,
0,
0,
0,
0,
0,
0,
0,
0,
0,
0,
0,
0,
0,
0,
0,
0,
0,
0,
0,
0,
0,
0,
0,
0,
0,
0,
0,
0,
0,
0,
0,
0,
0,
0,
0,
0,
0,
0,
0,
0,
0,
0,
0,
0,
0,
0,
0,
0,
0,
0,
0,
0,
0,
0,
0,
0,
0,
0,
0,
0,
0,
0,
0,
0,
0,
0,
0,
0,
0,
0,
0,
0,
0,
0,
0,
0,
0,
0,
0,
0,
0,
0,
0,
0,
0,
0,
0,
0,
0,
0,
0,
0,
0,
0,
0,
0,
0,
0,
0,
0,
0,
0,
0,
0,
0,
0,
#ENDOFDATA   :